,subject_num,block_num,trial_num,rt_trail,s_bl,s_pretrial,s_ret,wm_perf,triggered_low,triggered_high,wm_perf_subjmean,arf,s_preret,s_preret_bl,s_prevstim,s_prevstim_bl,probes_perloc_rts0,probes_perloc_rts1,probes_perloc_rts2,probes_perloc_rts3,probes_perloc_rts4,probes_perloc_rts5,probes_perloc_respind0,probes_perloc_respind1,probes_perloc_respind2,probes_perloc_respind3,probes_perloc_respind4,probes_perloc_respind5,probes_perloc_colorind0,probes_perloc_colorind1,probes_perloc_colorind2,probes_perloc_colorind3,probes_perloc_colorind4,probes_perloc_colorind5,probes_perloc_acc0,probes_perloc_acc1,probes_perloc_acc2,probes_perloc_acc3,probes_perloc_acc4,probes_perloc_acc5,probes_perloc_resporder0,probes_perloc_resporder1,probes_perloc_resporder2,probes_perloc_resporder3,probes_perloc_resporder4,probes_perloc_resporder5,probes_perresporder_acc0,probes_perresporder_acc1,probes_perresporder_acc2,probes_perresporder_acc3,probes_perresporder_acc4,probes_perresporder_acc5,probes_sortedbylocacc_acc0,probes_sortedbylocacc_acc1,probes_sortedbylocacc_acc2,probes_sortedbylocacc_acc3,probes_sortedbylocacc_acc4,probes_sortedbylocacc_acc5
0,0,0,7,NA,NA,NA,1241.404,2.0,NA,NA,2.563758389261745,4,1026.817576009996,1084.66,1141.7028714107366,1092.15,3.156506730589399,2.2046295324853418,1.3644089009821982,6.380232400341356,4.964264983601197,3.9972291342605786,7.0,5.0,2.0,4.0,0.0,3.0,1,5,2,3,6,0,0,1,1,0,0,0,2,1,0,5,4,3,1,1,0,0,0,0,0,0,1,1,0,0
1,0,0,50,NA,NA,NA,1534.404,2.0,NA,NA,2.563758389261745,4,1553.3610995418576,1547.32,1526.250936329588,1718.77,4.193763028970352,4.663946643372128,1.9063496416890757,5.15268841544912,5.719674429690258,3.2562581823074197,8.0,1.0,2.0,6.0,3.0,4.0,6,8,2,1,5,4,0,0,1,0,0,1,2,5,0,1,3,4,1,1,0,0,0,0,0,0,0,1,0,1
2,0,0,63,NA,NA,NA,1291.4925,2.0,NA,NA,2.563758389261745,0,1244.252811328613,1185.22,1309.7503121098628,1292.89,0.8974922225313549,3.1695240120789094,2.5369087641352053,1.8030752361751183,4.464269545166417,3.8726108802452472,7.0,2.0,3.0,2.0,7.0,7.0,7,6,4,2,0,1,1,0,0,1,0,0,0,3,2,1,5,4,1,1,0,0,0,0,1,1,0,0,0,0
3,0,0,67,NA,NA,NA,1288.263,2.0,NA,NA,2.563758389261745,0,1334.438983756768,1336.43,1351.8177278401997,1328.68,0.9531972010236132,2.7612328542170417,2.2193328824987475,1.7715049287712645,3.745351194902014,3.305502559038132,4.0,1.0,1.0,2.0,4.0,5.0,4,0,5,2,7,1,1,0,0,1,0,0,0,3,2,1,5,4,1,1,0,0,0,0,1,1,0,0,0,0
4,0,0,85,0.263944895,NA,NA,1287.428,2.0,1.0,0.0,2.563758389261745,0,1177.219491878384,1056.44,1228.7041198501872,1179.12,2.4963042769234107,3.168633936676315,1.4339208819330906,5.319934495924144,4.5687268215469885,3.9447699944805663,1.0,1.0,7.0,7.0,8.0,8.0,1,5,7,4,6,2,1,0,1,0,0,0,2,0,1,5,4,3,1,1,0,0,0,0,1,0,0,1,0,0
5,0,0,105,0.554985202,NA,NA,1093.091,3.0,0.0,1.0,2.563758389261745,0,1155.9487713452727,1050.07,1145.3882646691636,1153.39,1.7095426232649515,2.1089501329695395,1.0767030033346146,4.515631628524488,3.4112028619260855,2.900218898108278,5.0,1.0,7.0,1.0,5.0,3.0,5,2,7,1,4,6,1,0,1,1,0,0,2,0,1,5,4,3,1,1,0,0,0,1,1,1,0,1,0,0
6,0,0,117,0.513526751,NA,NA,1309.966,2.0,0.0,1.0,2.563758389261745,0,1323.289462723865,992.81,1361.5393258426966,1469.61,2.26729403392892,1.3398294772903228,5.2347427049169255,4.539582981712783,3.923727779475712,2.820416881440451,5.0,7.0,2.0,4.0,1.0,0.0,5,7,1,0,6,3,1,1,0,0,0,0,1,0,5,4,3,2,1,1,0,0,0,0,1,0,1,0,0,0
7,0,0,121,0.514604421,NA,NA,1288.8725,2.0,0.0,1.0,2.563758389261745,0,1342.2902957101207,1389.18,1328.3533083645443,1319.79,2.046334383253452,2.757586167965883,3.3095406845995967,1.1126350223287318,4.726307800732457,4.0697528886112195,2.0,1.0,4.0,4.0,6.0,8.0,2,5,1,4,3,6,1,0,0,1,0,0,3,0,1,2,5,4,1,1,0,0,0,0,1,1,0,0,0,0
8,0,0,135,0.271412747,NA,NA,1166.8115,3.0,1.0,0.0,2.563758389261745,0,1020.1945022907122,928.83,1101.601747815231,1055.4,0.8495960734048822,3.7295031771302547,2.9385751038896615,2.2183470142276747,5.913593122072143,4.497914509426664,7.0,0.0,3.0,5.0,6.0,1.0,7,4,0,5,6,8,1,0,0,1,1,0,0,3,2,1,5,4,1,1,0,0,0,1,1,1,0,0,1,0
9,0,0,194,0.578549677,NA,NA,1073.3785,3.0,0.0,1.0,2.563758389261745,0,1056.176593086214,992.7,1035.171036204744,1067.1,4.197677136979337,2.950377583556474,1.997487717985905,6.3648428198685,5.205771064167493,0.9663613078919298,2.0,5.0,4.0,3.0,1.0,7.0,0,5,6,4,1,7,0,1,0,0,1,1,5,2,1,0,4,3,1,0,1,0,1,0,0,0,1,0,1,1
10,0,0,285,0.28501267399999997,NA,NA,944.8725,3.0,1.0,0.0,2.563758389261745,0,929.5131195335277,953.29,955.3595505617977,939.29,2.3537679098453737,3.2326962727452155,3.8805009624902596,0.9848963726435613,5.15157795942946,6.455021256893815,6.0,0.0,1.0,7.0,4.0,2.0,6,0,5,7,1,4,1,1,0,1,0,0,3,0,1,2,4,5,1,1,1,0,0,0,1,1,1,0,0,0
11,0,0,326,0.495754608,NA,NA,1042.2855,4.0,0.0,1.0,2.563758389261745,0,978.0533111203665,825.58,1005.3907615480649,1055.01,0.8046512569392235,3.148372889705797,2.4989998768378427,1.6936472792544919,3.8916668187189316,4.346977164804684,0.0,8.0,1.0,4.0,4.0,6.0,0,8,5,4,1,6,1,1,0,1,0,1,0,3,2,1,4,5,1,1,0,1,0,1,1,1,1,0,0,1
12,0,0,339,0.5240248129999999,NA,NA,884.61,4.0,0.0,1.0,2.563758389261745,0,995.9654310703874,1134.31,911.9238451935081,1009.94,1.691166358000828,0.9315377492325752,5.048768833562235,4.272792145440917,3.282215483776781,2.570616449916315,4.0,2.0,3.0,0.0,6.0,1.0,4,2,1,0,6,5,1,1,0,1,1,0,1,0,5,4,3,2,1,1,0,1,1,0,1,1,1,0,1,0
13,0,0,353,0.657944099,NA,NA,962.257,2.0,0.0,1.0,2.563758389261745,0,952.2565597667639,954.77,937.7003745318352,931.12,3.6462343709372362,2.8151810599251803,1.4310462405860562,6.614394931188599,5.8389967065497785,4.702198503350473,1.0,5.0,7.0,4.0,0.0,3.0,1,2,7,3,5,4,1,0,1,0,0,0,2,1,0,5,4,3,1,0,1,0,0,0,1,0,0,1,0,0
14,0,0,383,0.49723645200000005,NA,NA,1149.506,2.0,0.0,1.0,2.563758389261745,0,1153.3923365264473,1111.72,1189.3208489388264,1199.4,2.193526682875472,2.9389742408413895,3.9376713437914077,1.0908544039630215,4.649588261724375,6.257883239897183,5.0,1.0,0.0,7.0,3.0,4.0,5,8,4,7,2,6,1,0,0,1,0,0,3,0,1,2,4,5,1,1,0,0,0,0,1,1,0,0,0,0
15,0,0,388,0.292965002,NA,NA,967.18,0.0,1.0,0.0,2.563758389261745,0,904.3944189920867,901.59,929.314606741573,925.5,1.2900488315551684,6.29568379002194,3.0879224579537095,2.2001634750915855,4.192314446933096,5.079635804637292,5.0,3.0,1.0,8.0,7.0,0.0,6,4,7,3,1,2,0,0,0,0,0,0,0,3,2,4,5,1,0,0,0,0,0,0,0,0,0,0,0,0
16,0,0,425,0.287278156,NA,NA,997.565,3.0,1.0,0.0,2.563758389261745,0,1094.7750937109538,1152.32,1030.0861423220974,1089.34,2.5551729859548686,3.3074477814827787,3.955457171464559,1.1412907746905603,4.930941039489426,5.5626989982802115,2.0,1.0,1.0,4.0,6.0,6.0,2,0,8,4,3,6,1,0,0,1,0,1,3,0,1,2,4,5,1,1,0,0,0,1,1,1,0,0,0,1
17,0,0,431,0.265220898,NA,NA,1025.3035,2.0,1.0,0.0,2.563758389261745,0,1027.7675968346523,1087.11,1033.518102372035,1009.9,5.9815399159761,0.8455927297775361,1.846553224342415,3.0231020467742837,4.054424319072496,4.837057756257309,1.0,7.0,3.0,5.0,6.0,0.0,0,7,3,4,8,1,0,1,1,0,0,0,1,2,3,4,5,0,1,1,0,0,0,0,0,0,1,1,0,0
18,0,0,444,0.25903475,NA,NA,1022.497,2.0,1.0,0.0,2.563758389261745,0,972.1478550603915,984.39,1043.0374531835207,1007.29,6.146826234017453,0.9967572973637289,1.9886029294370928,3.2030053301887165,4.283629283879918,5.2270348001804905,4.0,4.0,6.0,8.0,7.0,0.0,5,4,6,0,2,1,0,1,1,0,0,0,1,2,3,4,5,0,1,1,0,0,0,0,0,0,1,1,0,0
19,0,0,449,0.257338513,NA,NA,965.456,3.0,1.0,0.0,2.563758389261745,0,985.7413577675968,937.69,1003.147315855181,996.57,3.5498824256580974,4.694706132568399,1.2306324496062189,2.3336733600033313,6.6537506899367145,5.758431197912614,5.0,2.0,7.0,6.0,1.0,4.0,5,3,7,6,2,1,1,0,1,1,0,0,2,3,0,1,5,4,1,1,1,0,0,0,1,1,0,1,0,0
20,0,0,508,0.535291214,NA,NA,1152.6795,2.0,0.0,1.0,2.563758389261745,0,1054.5439400249895,852.62,1115.4394506866417,1093.11,6.228315744698193,0.966892445135727,2.0133702325940703,3.124175782194243,4.308331584733423,5.068013221696674,1.0,3.0,7.0,4.0,5.0,0.0,8,3,7,2,4,6,0,1,1,0,0,0,1,2,3,4,5,0,1,1,0,0,0,0,0,0,1,1,0,0
21,0,0,518,0.288033855,NA,NA,1061.427,3.0,1.0,0.0,2.563758389261745,0,988.9533527696793,1131.63,948.4431960049938,962.53,2.7981185254284355,1.9490279304634441,1.0048401057370029,5.18095985594573,4.429186832585856,3.5967596351658813,4.0,7.0,6.0,2.0,1.0,0.0,5,7,6,2,0,1,0,1,1,1,0,0,2,1,0,5,4,3,1,1,0,0,0,1,0,1,1,1,0,0
22,0,0,546,0.278818638,NA,NA,1015.5065,3.0,1.0,0.0,2.563758389261745,0,994.9550187421908,989.1,1055.9076154806492,1038.47,6.411376486500103,0.955094812131847,3.0840288769882136,1.8524501877084276,4.075983986625488,5.411689809007385,5.0,7.0,0.0,3.0,4.0,2.0,1,7,0,3,2,8,0,1,1,1,0,0,1,3,2,4,5,0,1,1,1,0,0,0,0,1,1,1,0,0
23,0,0,556,0.589243221,NA,NA,1241.0395,4.0,0.0,1.0,2.563758389261745,0,1323.9046230737192,1199.49,1252.310861423221,1408.49,2.069411056321769,3.3008805531353573,3.981118256296213,1.0933224958148458,5.1330029809828375,5.941029225948114,0.0,1.0,4.0,2.0,8.0,6.0,0,1,4,2,7,8,1,1,1,1,0,0,3,0,1,2,4,5,1,1,1,1,0,0,1,1,1,1,0,0
24,0,0,564,0.28448106100000004,NA,NA,983.4745,2.0,1.0,0.0,2.563758389261745,0,1056.238234069138,1126.23,1005.601747815231,988.46,3.596463133430234,2.286670992550853,1.141917704802836,5.2202697139441625,4.6773490920204495,4.269630125488675,8.0,1.0,2.0,4.0,1.0,3.0,4,1,2,8,3,6,0,1,1,0,0,0,2,1,0,5,4,3,1,1,0,0,0,0,0,0,1,1,0,0
25,0,0,603,0.488376372,NA,NA,1048.8405,5.0,0.0,1.0,2.563758389261745,0,1002.2099125364432,1017.72,1045.8501872659176,992.44,1.962518759436989,2.890704043371443,3.8407087189757476,1.0898183584749859,4.809516736382648,5.704744712005777,6.0,0.0,1.0,2.0,4.0,5.0,6,0,3,2,4,5,1,1,0,1,1,1,3,0,1,2,4,5,1,1,1,0,1,1,1,1,1,0,1,1
26,0,0,618,0.275640653,NA,NA,880.832,3.0,1.0,0.0,2.563758389261745,0,851.6201582673885,858.96,863.370786516854,856.12,0.617363654816927,3.3909991196178453,1.67277783353029,2.6238199801114206,4.25443925819809,4.942396840203855,5.0,2.0,3.0,1.0,7.0,6.0,5,8,1,0,7,6,1,0,0,0,1,1,0,2,3,1,4,5,1,0,0,0,1,1,1,0,0,0,1,1
27,0,0,623,0.257952329,NA,NA,929.8205,4.0,1.0,0.0,2.563758389261745,0,924.8729695960017,1017.69,914.458177278402,900.96,5.6097561045144175,0.9885858235679734,1.8763299813431331,2.675022978884499,3.5303894322219094,4.4423255657479785,5.0,1.0,3.0,0.0,4.0,8.0,4,1,3,0,2,8,0,1,1,1,0,1,1,2,3,4,5,0,1,1,1,0,1,0,0,1,1,1,0,1
28,0,0,628,0.28612522,NA,NA,904.179,3.0,1.0,0.0,2.563758389261745,0,1066.746772178259,1090.25,1040.3770287141074,1082.25,2.6914397668128913,4.378158313680615,5.041576955885375,0.7540994215937644,1.8041429275212977,3.5140097070107004,7.0,2.0,1.0,4.0,6.0,8.0,2,0,1,4,6,5,0,0,1,1,1,0,3,4,0,5,1,2,1,1,0,0,0,1,0,1,0,1,1,0
29,0,0,640,0.257349062,NA,NA,1008.6065,2.0,1.0,0.0,2.563758389261745,0,1092.1078717201167,1091.58,1008.6354556803994,1056.07,2.60069911688106,3.1447798018457433,0.9224379969255097,4.824343248655623,4.321143025594665,1.8721897907607854,4.0,4.0,0.0,4.0,3.0,7.0,1,4,0,5,6,2,0,1,1,0,0,0,2,5,0,1,4,3,1,0,0,1,0,0,0,0,1,1,0,0
30,0,0,677,0.508194472,NA,NA,879.587,1.0,0.0,1.0,2.563758389261745,4,769.8071636817992,921.74,841.0711610486892,403.97,1.1858618279102302,4.0416014742977495,2.8033455089112067,2.147034925623757,3.4018582105891255,4.817379734334281,5.0,0.0,2.0,6.0,3.0,4.0,5,8,0,1,6,3,1,0,0,0,0,0,0,3,2,4,1,5,1,0,0,0,0,0,1,0,0,0,0,0
31,0,0,693,0.593860095,NA,NA,943.9235,5.0,0.0,1.0,2.563758389261745,0,781.2586422324032,734.44,850.3046192259675,821.4,1.2767741067314091,5.626359631516607,4.706684802689779,2.0106934491363972,2.9379059792995577,3.6832343663759275,2.0,4.0,1.0,8.0,6.0,8.0,2,4,1,8,6,5,1,1,1,1,1,0,0,3,4,5,2,1,1,1,1,0,1,1,1,1,1,1,1,0
32,0,0,719,0.253549848,NA,NA,995.9725,1.0,1.0,0.0,2.563758389261745,0,877.7246980424823,916.41,855.9700374531835,826.66,1.173064927037558,4.83412096358461,2.788247298412898,2.1719989462781086,3.6507856725797865,4.290963425370137,7.0,1.0,1.0,3.0,7.0,0.0,7,0,5,4,6,1,1,0,0,0,0,0,0,3,2,4,5,1,1,0,0,0,0,0,1,0,0,0,0,0
33,0,0,750,0.27101085399999997,NA,NA,1102.2785,2.0,1.0,0.0,2.563758389261745,0,1091.9312786339026,1041.55,1126.1210986267165,1094.03,1.1570678031048374,3.5716670353936024,2.8846326001380476,2.189202889295757,5.059562066936451,4.403875562783469,2.0,3.0,4.0,5.0,7.0,4.0,2,7,3,5,4,8,1,0,0,1,0,0,0,3,2,1,5,4,1,1,0,0,0,0,1,1,0,0,0,0
34,0,0,763,0.279030276,NA,NA,1106.736,3.0,1.0,0.0,2.563758389261745,0,1078.1516034985423,964.08,1134.343320848939,1153.64,1.9673842388801859,2.751310594691404,3.35221840317854,0.9065101517635412,4.375884658544237,5.367588596999667,4.0,2.0,1.0,6.0,1.0,8.0,4,2,7,6,8,3,1,1,0,1,0,0,3,0,1,2,4,5,1,1,1,0,0,0,1,1,1,0,0,0
35,0,0,767,0.480764925,NA,NA,1120.9735,3.0,0.0,1.0,2.563758389261745,0,1089.6576426488964,1135.61,1088.2247191011236,1074.99,0.7892411494231055,1.6183215835017108,2.314254777098995,4.09778114066512,3.0265548665061033,3.570273192137847,0.0,2.0,4.0,3.0,6.0,4.0,0,2,7,8,5,4,1,1,0,0,0,1,0,1,2,4,5,3,1,1,0,0,1,0,1,0,1,0,0,1
36,0,0,777,0.492782464,NA,NA,1056.1955,2.0,0.0,1.0,2.563758389261745,0,978.9537692628072,982.1,1000.3495630461923,962.12,2.347615213732297,1.5636962704643338,0.7652524484201422,5.394640103912479,4.490625413391626,3.163481933921048,5.0,8.0,7.0,0.0,4.0,2.0,8,3,7,1,4,0,0,0,1,0,1,0,2,1,0,5,4,3,1,0,0,0,1,0,0,0,0,1,1,0
37,0,0,784,0.502706529,NA,NA,1130.422,2.0,0.0,1.0,2.563758389261745,0,1142.1012078300707,1133.44,1134.9712858926341,1121.94,1.8037953932753226,2.7633251871384346,3.6339392422328274,0.8515361640888841,4.426222955620688,5.249165803770666,5.0,1.0,4.0,8.0,3.0,0.0,5,0,2,8,7,4,1,0,0,1,0,0,3,0,1,2,4,5,1,1,0,0,0,0,1,1,0,0,0,0
38,0,1,13,NA,NA,NA,1115.437,2.0,NA,NA,2.563758389261745,4,898.2515618492295,513.76,958.0799001248439,960.44,2.9780061284627664,3.8654979746652316,4.569703281590137,1.3007300214853785,5.538335678738349,6.737712854034726,0.0,1.0,4.0,2.0,7.0,6.0,0,7,1,2,3,8,1,0,0,1,0,0,3,0,1,2,4,5,1,1,0,0,0,0,1,1,0,0,0,0
39,0,1,57,NA,NA,NA,982.3955,1.0,NA,NA,2.563758389261745,0,958.2861307788421,980.13,979.5755305867665,962.93,6.2109410280859265,1.0603517879058018,1.804925806142819,3.0664503154325757,4.091486750934109,5.147467133923328,2.0,7.0,3.0,8.0,1.0,1.0,4,7,8,2,0,5,0,1,0,0,0,0,1,2,3,4,5,0,1,0,0,0,0,0,0,0,1,0,0,0
40,0,1,60,NA,NA,NA,1062.1555,3.0,NA,NA,2.563758389261745,0,1041.18908788005,938.54,1049.2858926342071,1113.1,0.8411791303833525,3.3126040607053255,2.5924349862925737,1.8587790742758443,4.376255000615856,5.2162478389586795,2.0,7.0,1.0,5.0,8.0,6.0,2,1,6,5,8,0,1,0,0,1,1,0,0,3,2,1,4,5,1,1,0,0,1,0,1,1,0,0,1,0
41,0,1,62,NA,NA,NA,1232.5305,3.0,NA,NA,2.563758389261745,4,NA,NA,1094.3058676654182,695.89,0.9853987150072498,5.341934639613555,4.534501398120028,1.7356846681232128,2.6559145824116968,3.567381730019406,0.0,3.0,1.0,2.0,5.0,8.0,0,4,7,2,5,6,1,0,0,1,1,0,0,3,4,5,2,1,1,1,1,0,0,0,1,1,0,0,1,0
42,0,1,81,0.48784038799999996,NA,NA,1145.3195,2.0,0.0,1.0,2.563758389261745,4,1010.5251978342358,1056.79,1123.7815230961298,1033.07,2.9726442937103457,2.126241886116077,1.1589873667453503,5.508714585148482,4.596678382286882,3.8856837558105326,4.0,3.0,2.0,2.0,5.0,6.0,7,8,2,0,5,4,0,0,1,0,1,0,2,1,0,5,4,3,1,0,0,0,1,0,0,0,0,1,1,0
43,0,1,85,0.526553821,NA,NA,1222.7755,2.0,0.0,1.0,2.563758389261745,4,1224.390670553936,1263.61,1211.1186017478153,1254.78,1.9977454464174116,3.0214521856742067,0.9659750003420413,5.97278940850174,4.684434913307541,3.8771376634749686,0.0,1.0,2.0,3.0,4.0,6.0,0,4,2,6,1,8,1,0,1,0,0,0,2,0,1,5,4,3,1,1,0,0,0,0,1,0,0,1,0,0
44,0,1,178,0.48653673,NA,NA,1128.1785,2.0,0.0,1.0,2.563758389261745,0,1169.701374427322,1028.05,1178.7702871410736,1186.07,3.0206159937597477,2.235842612316901,0.9646438786076033,6.051474411900017,5.028193608790843,4.051508338540771,4.0,8.0,0.0,3.0,4.0,6.0,6,8,0,4,7,5,0,1,1,0,0,0,2,1,0,5,4,3,1,1,0,0,0,0,0,0,1,1,0,0
45,0,1,184,0.49546875,NA,NA,1173.505,3.0,0.0,1.0,2.563758389261745,0,1188.2969596001667,1096.54,1207.9912609238452,1203.79,2.7560928255702493,1.9635414053268505,1.0211764960790788,4.586629254229592,4.011097432751285,3.3476020992320628,1.0,0.0,3.0,4.0,7.0,2.0,1,0,3,2,4,7,1,1,1,0,0,0,2,1,0,5,4,3,1,1,1,0,0,0,1,0,1,1,0,0
46,0,1,197,0.283276523,NA,NA,1071.409,3.0,1.0,0.0,2.563758389261745,0,1070.079550187422,997.42,1112.880149812734,1110.84,2.5533694571281558,1.7050529027519588,0.8996911820386231,4.680938758706816,3.9048930769126855,3.305285599594754,7.0,8.0,4.0,4.0,7.0,3.0,7,8,4,3,6,5,1,1,1,0,0,0,2,1,0,5,4,3,1,1,1,0,0,0,1,0,1,1,0,0
47,0,1,226,0.270797126,NA,NA,1109.5605,1.0,1.0,0.0,2.563758389261745,0,1186.8638067471886,1176.08,1144.1860174781523,1204.61,2.247993481523281,3.3447819115694983,6.279368782016263,1.2342953864326773,5.079024554905118,4.296643714391394,5.0,1.0,4.0,6.0,0.0,7.0,3,0,4,5,8,2,0,0,1,0,0,0,3,0,1,5,4,2,0,0,0,0,0,1,0,0,0,1,0,0
48,0,1,295,0.505716687,NA,NA,1213.32,2.0,0.0,1.0,2.563758389261745,0,1140.960433152853,1125.19,1182.0162297128588,1202.66,2.0978863417617504,2.9306262914928993,3.6981187535066056,1.0273779439198734,4.64977671138513,5.345856160165567,1.0,8.0,7.0,3.0,4.0,7.0,1,0,2,3,5,4,1,0,0,1,0,0,3,0,1,2,4,5,1,1,0,0,0,0,1,1,0,0,0,0
49,0,1,300,0.27227830399999997,NA,NA,847.9255,3.0,1.0,0.0,2.563758389261745,0,899.5835068721366,970.92,815.354556803995,873.08,2.2788715714136742,3.077935766320479,4.4857331347534455,5.613543629090145,0.6223833721828669,1.319414192397744,5.0,1.0,4.0,7.0,0.0,2.0,5,8,1,3,0,2,1,0,0,0,1,1,4,5,0,1,2,3,1,1,1,0,0,0,1,0,0,0,1,1
50,0,1,308,0.526676888,NA,NA,1062.319,1.0,0.0,1.0,2.563758389261745,0,1042.9108704706373,1029.76,1023.960049937578,1068.92,2.834791228566246,2.05104847575285,1.2278262317363442,5.44906299749573,4.528912055304318,3.7211982775529577,2.0,1.0,4.0,3.0,8.0,5.0,8,6,4,7,5,1,0,0,1,0,0,0,2,1,0,5,4,3,1,0,0,0,0,0,0,0,0,1,0,0
51,0,1,387,0.519632881,NA,NA,1119.1175,2.0,0.0,1.0,2.563758389261745,0,1048.4135776759683,969.59,1057.398252184769,1064.0,3.265976596890141,2.427355364172854,1.5405722711579983,6.633473392390442,5.7054799792904305,4.874436076506754,4.0,3.0,0.0,6.0,5.0,7.0,6,3,0,1,8,4,0,1,1,0,0,0,2,1,0,5,4,3,1,1,0,0,0,0,0,0,1,1,0,0
52,0,1,397,0.5519405470000001,NA,NA,1118.3935,4.0,0.0,1.0,2.563758389261745,0,1175.2636401499376,1092.38,1197.828963795256,1210.1,4.138913629044055,4.842455228237668,5.57021531727969,1.3075370171009126,2.412333559891067,3.145955545266588,6.0,7.0,4.0,0.0,2.0,8.0,6,4,7,0,2,8,1,0,0,1,1,1,3,4,5,0,1,2,1,1,1,1,0,0,1,1,0,0,1,1
53,0,1,444,0.27918727,NA,NA,1068.1335,3.0,1.0,0.0,2.563758389261745,0,991.5072886297376,832.5,1074.0099875156054,1024.64,3.080654744255753,1.9515196854340502,0.8335787075257031,6.0390367342838545,4.807849199216889,3.960470616677867,1.0,0.0,8.0,3.0,4.0,2.0,1,0,4,8,5,2,1,1,0,0,0,1,2,1,0,5,4,3,0,1,1,1,0,0,1,0,1,0,0,1
54,0,1,450,0.266810318,NA,NA,1142.2185,3.0,1.0,0.0,2.563758389261745,0,1307.7605164514785,1286.07,1323.8352059925094,1346.62,2.063577669769984,3.094859458177325,5.653907493739098,1.17383184018081,4.933646332729495,3.9903112355909798,5.0,8.0,7.0,0.0,6.0,7.0,5,8,4,0,1,3,1,1,0,1,0,0,3,0,1,5,4,2,1,1,1,0,0,0,1,1,1,0,0,0
55,0,1,459,0.26110094899999997,NA,NA,991.895,1.0,1.0,0.0,2.563758389261745,0,1039.3515201999166,1052.78,995.3358302122347,1018.24,1.2793359957668144,0.8569521674276075,3.2563417159694836,5.327195652372211,2.4877020203171014,2.040140633054307,4.0,2.0,4.0,0.0,3.0,4.0,0,2,5,1,4,6,0,1,0,0,0,0,1,0,5,4,2,3,1,0,0,0,0,0,0,0,1,0,0,0
56,0,1,482,0.560273861,NA,NA,1070.062,1.0,0.0,1.0,2.563758389261745,0,1004.4493960849646,994.94,1040.5343320848938,996.67,3.063653505790626,2.0800811274361877,6.1521626950639074,0.9949856994930997,5.008573746823913,3.976336595612338,2.0,1.0,0.0,5.0,6.0,4.0,5,1,8,6,4,0,0,1,0,0,0,0,3,1,0,5,4,2,0,1,0,0,0,0,0,0,1,0,0,0
57,0,1,512,0.243669213,NA,NA,1011.424,1.0,1.0,0.0,2.563758389261745,0,1021.4135776759683,1050.55,1028.3270911360798,1028.73,4.55935366042786,5.487317993550278,1.1284408456231176,2.215393970979221,3.199062427300305,3.9116889537140196,7.0,3.0,7.0,6.0,0.0,8.0,6,8,7,0,1,5,0,0,1,0,0,0,2,3,4,5,0,1,1,0,0,0,0,0,0,0,0,1,0,0
58,0,1,520,0.272421898,NA,NA,1034.7765,3.0,1.0,0.0,2.563758389261745,0,998.3198667221991,1009.43,1002.7365792759051,966.0,2.297085616016375,1.603200565177758,0.9067328131627619,4.136645675864202,3.569161310628715,2.9773022219383165,4.0,0.0,2.0,4.0,6.0,3.0,8,0,2,4,3,1,0,1,1,1,0,0,2,1,0,5,4,3,1,1,0,0,0,1,0,1,1,1,0,0
59,0,1,525,0.527508519,NA,NA,990.866,5.0,0.0,1.0,2.563758389261745,0,981.6855476884631,896.49,968.6267166042447,968.92,3.1497464910162307,2.2464989987365698,0.9428430182965712,5.7257142270655095,4.7902207455422285,3.879092294147995,2.0,6.0,5.0,0.0,1.0,4.0,2,6,5,3,1,4,1,1,1,0,1,1,2,1,0,5,4,3,1,1,1,1,1,0,1,0,1,1,1,1
60,0,1,549,0.645191673,NA,NA,1288.214,3.0,0.0,1.0,2.563758389261745,0,1311.546022490629,1115.5,1368.5330836454432,1388.35,2.404830355391823,1.8307054916685956,4.413195695707145,1.0707960615450247,3.73364308261489,3.0370809632204327,0.0,2.0,4.0,7.0,5.0,5.0,0,2,5,7,1,8,1,1,0,1,0,0,3,1,0,5,4,2,1,1,1,0,0,0,1,1,1,0,0,0
61,0,1,553,0.515693685,NA,NA,1166.512,3.0,0.0,1.0,2.563758389261745,0,1271.1620158267388,1303.51,1232.1136079900125,1277.41,0.9945486445308234,2.970442198126875,2.186489898414038,4.760763583200514,4.296720120607915,3.7447981051259376,7.0,6.0,5.0,0.0,1.0,0.0,7,6,5,1,4,8,1,1,1,0,0,0,0,2,1,5,4,3,1,1,1,0,0,0,1,0,1,1,0,0
62,0,1,558,0.273661979,NA,NA,1104.599,2.0,1.0,0.0,2.563758389261745,0,1065.8992086630572,1243.6,1052.6803995006242,1031.11,2.229997251657096,1.556591347622998,0.8614635553749395,3.5566463715031205,3.1726820406615843,2.653790318533993,4.0,0.0,7.0,5.0,5.0,4.0,5,0,7,6,3,2,0,1,1,0,0,0,2,1,0,5,4,3,1,1,0,0,0,0,0,0,1,1,0,0
63,0,1,580,0.557737441,NA,NA,1137.5795,3.0,0.0,1.0,2.563758389261745,0,1099.7076218242398,1084.17,1157.1885143570537,1115.46,4.39381759669368,0.9970050473716583,2.7161985170350817,1.778780910306068,3.3861176746963793,3.8982357576533104,4.0,7.0,4.0,0.0,7.0,8.0,8,7,4,0,6,5,0,1,1,1,0,0,1,3,2,4,5,0,1,1,1,0,0,0,0,1,1,1,0,0
64,0,1,619,0.280338115,NA,NA,1036.3315,5.0,1.0,0.0,2.563758389261745,0,995.0637234485631,998.86,1008.059925093633,1038.97,1.5065783471623035,0.8924049369816203,4.489852228096424,3.834415184538102,3.0354519142606478,2.2360005565105894,3.0,7.0,0.0,1.0,2.0,4.0,3,7,0,1,2,8,1,1,1,1,1,0,1,0,5,4,3,2,1,1,0,1,1,1,1,1,1,1,1,0
65,0,1,652,0.547565626,NA,NA,1139.396,2.0,0.0,1.0,2.563758389261745,0,1104.5847563515201,928.2,1159.4744069912608,1132.05,3.844557539583093,2.91670667539438,1.628835135911686,6.40326972990988,5.5001972876934815,4.667242374203397,6.0,5.0,1.0,0.0,4.0,3.0,8,5,1,6,2,4,0,1,1,0,0,0,2,1,0,5,4,3,1,1,0,0,0,0,0,0,1,1,0,0
66,0,1,679,0.505357653,NA,NA,1048.3255,2.0,0.0,1.0,2.563758389261745,0,949.222407330279,784.58,1027.1735330836455,972.14,1.8547717392793857,2.996473625030376,6.588850736464792,1.0232266345228709,5.284692698759045,4.364786940695467,6.0,2.0,4.0,1.0,0.0,5.0,6,4,3,1,5,0,1,0,0,1,0,0,3,0,1,5,4,2,1,1,0,0,0,0,1,1,0,0,0,0
67,0,1,689,0.513331934,NA,NA,1046.045,2.0,0.0,1.0,2.563758389261745,0,1147.5989171178676,1033.93,1154.0736579275906,1190.53,4.335449804536893,6.182299530614728,7.677963762926083,2.91892787253164,1.88738464942071,5.167423981516549,5.0,1.0,0.0,6.0,3.0,2.0,4,5,1,6,3,8,0,0,0,1,1,0,4,3,0,5,1,2,1,1,0,0,0,0,0,1,0,0,1,0
68,0,1,758,0.275643409,NA,NA,970.293,2.0,1.0,0.0,2.563758389261745,0,1043.1328613077885,1107.31,967.5318352059925,991.66,2.328803318995142,3.1596154372491583,0.809087379061566,5.878906125270078,5.015503904699926,4.247177531554826,5.0,4.0,0.0,6.0,2.0,1.0,6,3,0,8,5,1,0,0,1,0,0,1,2,0,1,5,4,3,1,0,0,1,0,0,0,0,0,1,0,1
69,0,1,764,0.5529679439999999,NA,NA,1236.3075,3.0,0.0,1.0,2.563758389261745,0,1218.9762598917118,964.43,1307.7116104868915,1278.47,0.9639128877897747,4.076052125004935,3.1729141102891845,2.49346128143452,7.067588996136237,1.6773801676827134,7.0,1.0,3.0,6.0,4.0,0.0,7,8,4,6,1,0,1,0,0,1,0,1,0,5,3,2,1,4,1,1,1,0,0,0,1,1,0,0,0,1
70,0,1,771,0.5300272629999999,NA,NA,943.3595,5.0,0.0,1.0,2.563758389261745,0,965.1636817992503,983.23,978.4057428214732,979.02,5.903080710053473,1.327102425384055,2.1931651788363524,2.927661559234366,3.975624991447148,4.919795710304243,3.0,2.0,6.0,8.0,4.0,5.0,3,2,6,8,4,7,1,1,1,1,1,0,1,2,3,4,5,0,1,1,1,1,0,1,1,1,1,1,1,0
71,0,2,6,NA,NA,NA,1491.389,4.0,NA,NA,2.563758389261745,4,1480.563931695127,1623.73,1486.2009987515605,1501.8,1.5732553153634399,3.3946172960863805,4.283977958516971,0.8300745701862979,5.139224100573301,5.723139223530325,2.0,3.0,0.0,2.0,7.0,8.0,1,3,0,2,4,8,0,1,1,1,0,1,3,0,1,2,4,5,1,0,1,1,0,1,0,1,1,1,0,1
72,0,2,12,NA,NA,NA,1340.781,2.0,NA,NA,2.563758389261745,4,1269.6997084548104,1372.51,1317.398252184769,1233.25,2.7995611204119086,1.9034875446463957,1.1776726780494755,4.742473702576717,4.1589160922894735,3.552038050295778,8.0,7.0,6.0,4.0,4.0,6.0,2,7,6,3,0,5,0,1,1,0,0,0,2,1,0,5,4,3,1,1,0,0,0,0,0,0,1,1,0,0
73,0,2,22,NA,NA,NA,980.1405,3.0,NA,NA,2.563758389261745,4,1050.0928779675135,1191.83,1060.19975031211,1120.99,1.7069014770345348,0.7229139962505542,4.810310163623399,3.8106482896409943,3.195141191845778,2.6439570095290037,5.0,0.0,1.0,3.0,3.0,4.0,5,0,4,3,6,1,1,1,0,1,0,0,1,0,5,4,3,2,1,1,0,0,1,0,1,1,1,0,0,0
74,0,2,49,NA,NA,NA,1007.4905,1.0,NA,NA,2.563758389261745,4,934.289879216993,1030.82,922.7103620474408,1055.66,0.9961913781858129,3.1570951724957013,2.477060173886912,1.8434496494437553,4.443660108656331,3.796172732787909,7.0,0.0,3.0,4.0,7.0,4.0,7,6,0,5,4,3,1,0,0,0,0,0,0,3,2,1,5,4,1,0,0,0,0,0,1,0,0,0,0,0
75,0,2,81,0.238110185,NA,NA,996.987,2.0,1.0,0.0,2.563758389261745,0,1053.0158267388588,1035.24,1031.003745318352,1055.53,1.7485217677890432,2.340768019322695,2.8690497233410497,0.7895938154301803,3.5164393106560965,4.12359959949481,7.0,3.0,1.0,0.0,3.0,5.0,7,4,6,0,2,8,1,0,0,1,0,0,3,0,1,2,4,5,1,1,0,0,0,0,1,1,0,0,0,0
76,0,2,98,0.24970701399999998,NA,NA,1012.3845,4.0,1.0,0.0,2.563758389261745,0,1132.4498125780924,1251.24,1099.4282147315855,1090.33,3.5428194121968772,4.838492368501647,6.046164179853349,0.9201988386253106,1.7433811689465983,2.7756496809183773,0.0,1.0,4.0,7.0,2.0,5.0,3,1,8,7,2,5,0,1,0,1,1,1,3,4,5,0,1,2,1,1,1,0,1,0,0,1,1,0,1,1
77,0,2,104,0.250718447,NA,NA,1012.8385,3.0,1.0,0.0,2.563758389261745,0,1161.7205331112036,1353.98,1059.5255930087392,1073.69,2.1580094812129573,5.165074490359075,3.0136767127537496,1.3507296223478988,3.9017895020137985,6.5091684608823925,3.0,2.0,0.0,8.0,1.0,6.0,3,4,0,8,6,5,1,0,1,1,0,0,3,0,2,4,1,5,1,1,1,0,0,0,1,1,0,1,0,0
78,0,2,146,0.456572854,NA,NA,1191.0005,2.0,0.0,1.0,2.563758389261745,0,1244.6472303206997,1367.65,1186.9925093632958,1177.08,3.3634683632644737,2.1805681315372567,1.0915198222810432,6.099165860789981,5.09895374800999,4.172276061362027,5.0,3.0,1.0,4.0,7.0,8.0,2,3,1,0,4,7,0,1,1,0,0,0,2,1,0,5,4,3,1,1,0,0,0,0,0,0,1,1,0,0
79,0,2,153,0.250719967,NA,NA,1313.7305,4.0,1.0,0.0,2.563758389261745,0,1358.807996668055,1098.16,1414.0212234706617,1417.98,4.396594449487566,5.32545570036018,6.093120076360719,1.167171099747975,2.236632333286252,3.438264347263157,1.0,2.0,5.0,4.0,8.0,0.0,1,3,7,4,8,0,1,0,0,1,1,1,3,4,5,0,1,2,1,1,1,1,0,0,1,1,0,0,1,1
80,0,2,157,0.508994741,NA,NA,1231.9075,2.0,0.0,1.0,2.563758389261745,1,1342.1053727613494,1356.1,1359.9500624219725,1349.09,1.1108200895891969,2.0933099515104914,3.1575997956419997,4.188637825410751,5.445021735858063,6.44439993750666,2.0,7.0,3.0,4.0,6.0,0.0,2,7,1,3,4,8,1,1,0,0,0,0,0,1,2,3,4,5,1,1,0,0,0,0,1,0,1,0,0,0
81,0,2,187,0.252930996,NA,NA,1187.364,5.0,1.0,0.0,2.563758389261745,0,1198.1253644314868,1099.74,1238.7403245942571,1248.11,6.086575085643744,5.190843627265622,4.09509551917472,2.5837283838832263,7.862591117264401,6.863566436916244,2.0,5.0,1.0,7.0,6.0,3.0,2,5,1,7,6,4,1,1,1,1,1,0,3,2,1,0,5,4,1,1,1,1,0,1,1,1,1,1,1,0
82,0,2,213,0.241736725,NA,NA,1132.27,2.0,1.0,0.0,2.563758389261745,0,1018.0299875052061,1019.82,989.7041198501872,961.43,2.27149266956485,1.5511807611424047,0.6408075338808885,3.6302629058081948,3.238943906433178,2.8139411694937735,5.0,3.0,7.0,7.0,1.0,4.0,2,3,7,0,5,6,0,1,1,0,0,0,2,1,0,5,4,3,1,1,0,0,0,0,0,0,1,1,0,0
83,0,2,229,0.458555615,NA,NA,1005.88,2.0,0.0,1.0,2.563758389261745,0,887.8529779258643,874.89,878.3570536828964,861.51,3.3355875067854868,5.079112365034689,4.415322525464944,0.793641919415677,1.8479741518913215,2.5197934865414027,4.0,5.0,5.0,6.0,7.0,0.0,8,0,2,6,7,3,0,0,0,1,1,0,3,4,5,0,2,1,1,1,0,0,0,0,0,1,0,0,1,0
84,0,2,234,0.49681146600000003,NA,NA,1074.539,3.0,0.0,1.0,2.563758389261745,0,1134.23781757601,1186.68,1094.7403245942571,1122.98,3.254666766260925,2.2072102379765965,1.4558517468512946,0.6322483270459998,4.710570115817973,3.990843228128142,7.0,5.0,3.0,0.0,7.0,4.0,8,5,3,0,1,2,0,1,1,1,0,0,3,2,1,0,5,4,1,1,1,0,0,0,0,1,1,1,0,0
85,0,2,244,0.254771207,NA,NA,1231.3355,2.0,1.0,0.0,2.563758389261745,0,1245.6205747605165,1317.63,1269.027465667915,1216.12,1.7813915510691913,3.3172046842714735,3.7959714537250875,4.331965624045097,0.9976770229400245,2.5479831039624514,1.0,3.0,1.0,3.0,5.0,4.0,1,0,2,4,5,7,1,0,0,0,1,0,4,0,5,1,2,3,1,1,0,0,0,0,1,0,0,0,1,0
86,0,2,251,0.256174744,NA,NA,1164.684,3.0,1.0,0.0,2.563758389261745,0,1257.3223656809662,1271.39,1220.4794007490636,1208.55,3.534650219183277,2.831776889286175,2.1764590166176276,1.0796577571695707,4.469898801676663,4.054506997440967,4.0,4.0,6.0,3.0,4.0,4.0,0,8,6,3,7,4,0,0,1,1,0,1,3,2,1,0,5,4,1,1,0,0,1,0,0,1,0,1,0,1
87,0,2,262,0.227959277,NA,NA,1238.6375,3.0,1.0,0.0,2.563758389261745,0,1226.6443148688047,1159.67,1252.9225967540574,1175.59,2.797707984563658,2.150937344621525,4.524248140021882,1.0709762433684773,3.7730541503401582,3.2853113610340188,4.0,1.0,2.0,7.0,5.0,6.0,4,0,8,7,5,1,1,0,0,1,1,0,3,1,0,5,4,2,1,0,1,0,1,0,1,1,0,0,1,0
88,0,2,271,0.24571735600000003,NA,NA,1033.873,3.0,1.0,0.0,2.563758389261745,0,1125.9900041649312,1228.7,1043.8626716604244,1120.06,2.212661308348288,1.7952686875923973,0.9637840235741351,3.627543927872466,3.1473069089465753,2.659741165388823,7.0,5.0,2.0,0.0,4.0,4.0,3,5,2,8,1,4,0,1,1,0,0,1,2,1,0,5,4,3,1,1,0,1,0,0,0,0,1,1,0,1
89,0,2,275,0.232366795,NA,NA,970.755,2.0,1.0,0.0,2.563758389261745,0,753.1441066222408,817.17,842.5268414481898,755.18,3.1582560908300366,3.917335886289038,5.388835227142863,0.8940154545825862,1.6776361855277173,2.3109695948874105,6.0,0.0,1.0,0.0,1.0,4.0,6,1,3,0,4,5,1,0,0,1,0,0,3,4,5,0,1,2,1,0,0,1,0,0,1,1,0,0,0,0
90,0,2,280,0.5678933860000001,NA,NA,969.323,2.0,0.0,1.0,2.563758389261745,0,998.9883381924199,984.05,969.4444444444445,975.41,0.9042128335072448,5.62301543405556,2.599835555575737,1.6956204412854277,3.4625663707729473,4.438728771615843,0.0,6.0,1.0,3.0,4.0,8.0,0,2,5,3,8,6,1,0,0,1,0,0,0,3,2,4,5,1,1,1,0,0,0,0,1,1,0,0,0,0
91,0,2,292,0.49139023600000004,NA,NA,1070.3375,3.0,0.0,1.0,2.563758389261745,0,1073.6934610578926,1161.94,1069.9101123595506,1037.44,3.8614883588857083,2.9745074079814913,2.1834333646556843,1.189626829757799,5.653090688476823,4.741632949097493,4.0,6.0,8.0,0.0,4.0,3.0,4,5,8,0,7,1,1,0,1,1,0,0,3,2,1,0,5,4,1,1,0,1,0,0,1,1,0,1,0,0
92,0,2,329,0.187784908,NA,NA,1272.154,2.0,1.0,0.0,2.563758389261745,0,1155.7271970012496,1049.41,1214.9987515605494,1202.47,3.35864849947302,2.5742930714386603,2.0723355897871443,1.3277031264960897,4.50270415284831,3.974598924382917,3.0,4.0,5.0,7.0,3.0,3.0,3,8,0,7,5,4,1,0,0,1,0,0,3,2,1,0,5,4,1,0,0,1,0,0,1,1,0,0,0,0
93,0,2,341,0.246774403,NA,NA,1044.844,4.0,1.0,0.0,2.563758389261745,0,968.4335693461057,941.79,1026.2996254681648,980.95,0.9078606601497086,3.9616497812730813,3.441303490053542,1.761163860544002,2.818282354041912,4.561448559229575,3.0,0.0,1.0,6.0,8.0,4.0,3,7,2,6,8,4,1,0,0,1,1,1,0,3,4,2,1,5,1,1,1,0,0,1,1,1,0,0,1,1
94,0,2,390,0.502762598,NA,NA,1034.2115,2.0,0.0,1.0,2.563758389261745,0,951.4160766347355,900.98,996.832709113608,1008.98,2.2450524123842115,1.5967633414375086,0.839111600972501,3.628061095322664,3.1244531823758734,2.724461507232263,3.0,0.0,5.0,5.0,8.0,8.0,4,0,5,1,2,3,0,1,1,0,0,0,2,1,0,5,4,3,1,1,0,0,0,0,0,0,1,1,0,0
95,0,2,406,0.529709284,NA,NA,1159.2275,2.0,0.0,1.0,2.563758389261745,0,981.8458975426905,897.09,998.7178526841449,906.28,4.507693649845351,1.7895650205500715,2.4120992094804024,1.0299044808252802,3.0601519343317705,3.8844974637695486,4.0,4.0,4.0,7.0,4.0,5.0,5,1,0,7,4,3,0,0,0,1,1,0,3,1,2,4,5,0,1,0,0,1,0,0,0,1,0,0,1,0
96,0,2,424,0.611085421,NA,NA,1056.347,3.0,0.0,1.0,2.563758389261745,0,1091.8967097042898,864.63,1190.1385767790262,1157.48,1.422135223037003,0.7345055035284531,4.462270154134785,3.6782371717381466,2.670603107338138,2.0473059966334404,7.0,6.0,0.0,2.0,2.0,6.0,7,6,3,2,4,8,1,1,0,1,0,0,1,0,5,4,3,2,1,1,0,0,1,0,1,1,1,0,0,0
97,0,2,454,0.538399921,NA,NA,846.861,3.0,0.0,1.0,2.563758389261745,0,874.3040399833403,892.25,823.310861423221,966.67,2.60793803569959,1.8636280180462563,0.8665100719363181,5.087714906739166,3.9112898167622916,3.079765239049266,4.0,0.0,5.0,1.0,3.0,3.0,1,0,5,4,2,3,0,1,1,0,0,1,2,1,0,5,4,3,1,1,0,1,0,0,0,0,1,1,0,1
98,0,2,543,0.548051622,NA,NA,1152.7755,2.0,0.0,1.0,2.563758389261745,0,1081.9912536443148,856.13,1174.4681647940074,1166.59,4.313824279386608,2.257740976083369,2.697550553545625,1.2929328811296728,3.3294533420303196,3.786128166296294,0.0,6.0,3.0,2.0,3.0,1.0,1,6,4,2,7,5,0,1,0,1,0,0,3,1,2,4,5,0,1,1,0,0,0,0,0,1,1,0,0,0
99,0,2,567,0.493617895,NA,NA,1033.7765,2.0,0.0,1.0,2.563758389261745,0,1015.0391503540192,1003.31,1016.1847690387016,1017.25,1.2429891594401852,1.9402010167732442,0.5632495221761928,2.6596342537050077,3.2913845148550536,4.1869688627566575,8.0,7.0,4.0,3.0,3.0,0.0,8,1,4,6,5,3,1,0,1,0,0,0,2,0,1,3,4,5,1,1,0,0,0,0,1,0,0,1,0,0
100,0,2,571,0.53978198,NA,NA,1557.9385,4.0,0.0,1.0,2.563758389261745,0,1496.677217825906,1366.16,1561.0162297128588,1539.71,5.799118078395622,2.551181046241254,3.2412643176130587,4.199123438233983,4.760065663730529,5.326684471976478,4.0,5.0,6.0,0.0,7.0,4.0,4,5,6,0,1,2,1,1,1,1,0,0,1,2,3,4,5,0,1,1,1,0,0,1,1,1,1,1,0,0
101,0,2,605,0.253358832,NA,NA,1040.6355,5.0,1.0,0.0,2.563758389261745,0,1073.0041649312786,1128.51,1023.2384519350811,1055.71,3.502232886148704,2.5349911961793623,1.6614209617609959,0.839879369409573,5.036914751190125,4.221562347473082,6.0,0.0,6.0,8.0,1.0,4.0,7,0,6,8,1,4,0,1,1,1,1,1,3,2,1,0,5,4,1,1,1,0,1,1,0,1,1,1,1,1
102,0,2,617,0.250876201,NA,NA,1131.9095,4.0,1.0,0.0,2.563758389261745,0,1112.7855060391503,1047.51,1150.940074906367,1084.04,0.9578759413934677,3.298479174174645,2.492401002632505,4.14007910894361,5.162700195691286,6.426414826455584,8.0,4.0,6.0,1.0,1.0,0.0,8,4,6,0,1,7,1,1,1,0,1,0,0,2,1,3,4,5,1,1,1,0,1,0,1,0,1,1,1,0
103,0,2,621,0.56477356,NA,NA,1144.4675,2.0,0.0,1.0,2.563758389261745,0,1073.7692628071636,1107.52,1082.2097378277153,1039.58,0.8049386355442039,3.373904083969137,2.414346920715616,1.6206593856486506,4.372637394342746,5.3167134607228945,2.0,4.0,1.0,6.0,0.0,7.0,2,0,7,6,4,1,1,0,0,1,0,0,0,3,2,1,4,5,1,1,0,0,0,0,1,1,0,0,0,0
104,0,2,628,0.551393824,NA,NA,893.6405,2.0,0.0,1.0,2.563758389261745,0,1123.6289046230738,1157.47,1101.689138576779,1123.65,4.438406040881091,5.062358306382521,2.007193873361757,0.7682753406352276,2.7505887270044695,3.6702490158422734,8.0,7.0,1.0,2.0,4.0,3.0,4,8,1,2,7,5,0,0,1,1,0,0,3,2,4,5,0,1,1,1,0,0,0,0,0,1,0,1,0,0
105,0,2,661,0.485858388,NA,NA,1034.061,3.0,0.0,1.0,2.563758389261745,0,1105.738025822574,1178.95,1084.8576779026216,1117.57,1.2167424836807186,3.488743197565782,2.7847773728126413,2.016727544555579,4.527715499742044,5.903060468108379,2.0,7.0,8.0,5.0,0.0,3.0,2,8,7,5,6,3,1,0,0,1,0,1,0,3,2,1,4,5,1,1,0,0,0,1,1,1,0,0,0,1
106,0,2,668,0.23506638600000002,NA,NA,1121.335,3.0,1.0,0.0,2.563758389261745,0,1044.8675551853394,989.39,1033.2284644194756,1017.85,4.843193916696691,3.7156904727153233,0.9097554202799074,1.7391888054635274,2.4682557829246434,2.9802891918279784,4.0,1.0,2.0,5.0,4.0,6.0,3,1,2,5,7,0,0,1,1,1,0,0,2,3,4,5,1,0,1,1,0,0,1,0,0,1,1,1,0,0
107,0,2,675,0.543748641,NA,NA,874.2035,4.0,0.0,1.0,2.563758389261745,0,766.3011245314452,689.88,807.059925093633,748.3,4.608528188191485,5.383889635210835,6.279812964424309,1.8583112287487893,2.7374174926899286,3.5213435634032066,2.0,4.0,0.0,3.0,1.0,8.0,5,4,6,3,1,8,0,1,0,1,1,1,3,4,5,0,1,2,1,1,1,0,1,0,0,1,1,0,1,1
108,0,2,736,0.536450517,NA,NA,1146.762,3.0,0.0,1.0,2.563758389261745,0,1278.5351936693044,1162.96,1281.561797752809,1361.38,3.564363114272055,2.6104774020059267,1.3015867404428718,5.866280853286298,5.059326005939511,4.298349169566791,6.0,8.0,1.0,1.0,4.0,3.0,6,8,1,0,3,7,1,1,1,0,0,0,2,1,0,5,4,3,1,1,1,0,0,0,1,0,1,1,0,0
109,0,2,741,0.207246635,NA,NA,1215.9155,4.0,1.0,0.0,2.563758389261745,0,1241.4235735110371,1219.9,1239.3807740324594,1217.74,2.523296483489503,1.5076289326398182,0.8337868289372636,5.009184426360662,4.169970760367505,3.3853296643146678,1.0,5.0,0.0,3.0,7.0,6.0,1,5,0,8,4,6,1,1,1,0,0,1,2,1,0,5,4,3,1,1,1,1,0,0,1,0,1,1,0,1
110,0,2,752,0.508977065,NA,NA,1217.6715,2.0,0.0,1.0,2.563758389261745,0,1171.6326530612246,1052.64,1234.378277153558,1198.82,2.753914678203728,2.08248450208157,0.9153900936480568,5.4738759163037685,4.77804564302096,3.738062954160341,4.0,7.0,8.0,1.0,0.0,3.0,4,7,5,3,8,6,1,1,0,0,0,0,2,1,0,5,4,3,0,1,1,0,0,0,1,0,1,0,0,0
111,0,2,780,0.553738184,NA,NA,1149.7875,2.0,0.0,1.0,2.563758389261745,0,1096.1882548937942,1096.71,1124.7003745318352,1095.97,1.9529391874939392,1.4556079882131598,0.7271978761355058,3.8550226253637447,2.919131432377071,2.4477706490652054,7.0,1.0,3.0,1.0,3.0,7.0,5,1,3,7,2,0,0,1,1,0,0,0,2,1,0,5,4,3,1,1,0,0,0,0,0,0,1,1,0,0
112,0,3,18,NA,NA,NA,1251.9545,3.0,NA,NA,2.563758389261745,3,1155.5172844648064,907.19,1229.5855181023721,1199.55,3.489670050587847,2.769714799542271,2.203204898664808,1.235461436528567,4.481590663388488,3.9375416242819483,4.0,2.0,5.0,2.0,4.0,7.0,0,6,5,2,1,7,0,0,1,1,0,1,3,2,1,0,5,4,1,1,0,0,1,0,0,1,0,1,0,1
113,0,3,30,NA,NA,NA,1097.3095,2.0,NA,NA,2.563758389261745,0,1083.7609329446063,1133.19,1084.2372034956304,1095.37,2.2714365052934227,1.54380955693523,0.8615356851241813,4.765259290767972,4.0862053137670955,3.2453891129125623,4.0,6.0,5.0,1.0,4.0,0.0,1,6,5,4,0,7,0,1,1,0,0,0,2,1,0,5,4,3,1,1,0,0,0,0,0,0,1,1,0,0
114,0,3,69,NA,NA,NA,1016.1195,3.0,NA,NA,2.563758389261745,4,1017.6055810079133,1117.44,977.4569288389513,1097.9,3.702829995027969,0.8078628839120938,1.4477857592492,1.9512876158069048,2.4472335247664887,3.0627799660614983,3.0,7.0,5.0,0.0,4.0,0.0,8,7,3,5,4,0,0,1,0,0,1,1,1,2,3,4,5,0,1,0,0,1,1,0,0,0,1,0,1,1
115,0,3,75,NA,NA,NA,1278.389,2.0,NA,NA,2.563758389261745,4,1273.155351936693,1230.43,1220.9413233458176,1363.61,3.8923921075802355,1.7011992354819085,2.253996216181804,0.8537753223890832,2.837169799701769,3.372352581618543,0.0,0.0,4.0,7.0,8.0,5.0,4,0,5,7,1,2,0,1,0,1,0,0,3,1,2,4,5,0,1,1,0,0,0,0,0,1,1,0,0,0
116,0,3,119,0.272283911,NA,NA,968.879,1.0,1.0,0.0,2.563758389261745,0,1000.9150354019158,1029.5,1036.1410736579276,988.12,3.112998522052294,2.6963018250817186,1.698293803569868,2.064738017908894,3.744093058209728,0.7055278757243286,6.0,5.0,4.0,7.0,4.0,0.0,3,8,7,1,5,0,0,0,0,0,0,1,5,2,3,1,0,4,1,0,0,0,0,0,0,0,0,0,0,1
117,0,3,138,0.27203673100000003,NA,NA,1169.8735,1.0,1.0,0.0,2.563758389261745,0,1115.6080799666806,1083.79,1140.1423220973784,1104.76,1.440972776579656,1.8480169165650295,2.233332325988158,0.85104636602955,2.791728627927114,3.135887600753449,4.0,4.0,1.0,7.0,5.0,8.0,1,3,4,2,0,8,0,0,0,0,0,1,3,0,1,2,4,5,0,0,0,0,0,1,0,0,0,0,0,1
118,0,3,147,0.25492668,NA,NA,1500.983,2.0,1.0,0.0,2.563758389261745,0,1447.130778842149,1252.87,1614.7353308364545,1533.12,1.846759064969774,2.280543670143743,2.7512330480831224,1.0644432267599768,3.2783293153543127,3.918861444738468,0.0,0.0,4.0,1.0,4.0,8.0,0,8,7,1,2,3,1,0,0,1,0,0,3,0,1,2,4,5,1,1,0,0,0,0,1,1,0,0,0,0
119,0,3,151,0.49621722700000004,NA,NA,1350.5825,3.0,0.0,1.0,2.563758389261745,0,1433.3694294044149,1452.78,1444.3832709113608,1407.64,3.0928851557546295,1.8620924811721125,1.125632917166513,4.932408437983213,4.4285938291141065,3.8449868969037198,0.0,3.0,5.0,4.0,6.0,7.0,0,3,5,7,4,6,1,1,1,0,0,0,2,1,0,5,4,3,1,1,1,0,0,0,1,0,1,1,0,0
120,0,3,159,0.250403033,NA,NA,1004.102,3.0,1.0,0.0,2.563758389261745,0,992.7480216576427,892.84,1021.5955056179776,1024.62,2.3342840395398525,1.588952801484993,0.8858915921236985,3.860953230272571,3.365797612476854,2.8541815867865807,5.0,7.0,2.0,3.0,7.0,3.0,6,7,2,8,0,3,0,1,1,0,0,1,2,1,0,5,4,3,1,1,0,1,0,0,0,0,1,1,0,1
121,0,3,175,0.236212194,NA,NA,1032.5115,3.0,1.0,0.0,2.563758389261745,0,1062.0545605997502,923.58,1086.0898876404494,1082.9,3.0048512245521124,3.5239596210249147,4.387458489756682,1.9340123983338344,5.012370964725051,5.611503183972673,0.0,4.0,4.0,1.0,6.0,7.0,0,2,4,1,7,5,1,0,1,1,0,0,3,0,1,2,4,5,1,1,0,1,0,0,1,1,0,1,0,0
122,0,3,185,0.258976685,NA,NA,1117.6595,1.0,1.0,0.0,2.563758389261745,0,1067.4194085797585,939.6,1099.8264669163545,1106.84,1.038872803036611,4.365262198765777,3.126850284869761,2.485372771105176,1.6458782837571562,5.173578103118416,7.0,3.0,3.0,0.0,4.0,8.0,7,8,4,1,2,3,1,0,0,0,0,0,0,4,3,2,1,5,1,0,0,0,0,0,1,0,0,0,0,0
123,0,3,189,0.482054232,NA,NA,1234.0675,2.0,0.0,1.0,2.563758389261745,0,1266.5264473136194,1215.22,1274.3520599250937,1266.24,1.6585340612064101,2.171638012434414,2.658274337090006,0.8611932826388511,3.274957748501947,3.730212215415122,3.0,3.0,3.0,0.0,4.0,8.0,3,5,1,0,6,2,1,0,0,1,0,0,3,0,1,2,4,5,1,1,0,0,0,0,1,1,0,0,0,0
124,0,3,198,0.48591844799999995,NA,NA,1366.0235,2.0,0.0,1.0,2.563758389261745,4,1319.301541024573,1408.18,1281.9151061173534,1392.41,1.8740243952506717,1.1547998499245296,0.5304153761235284,3.3766681073611835,2.857247813869435,2.4088604982143806,3.0,3.0,8.0,5.0,6.0,7.0,6,3,8,7,0,2,0,1,1,0,0,0,2,1,0,5,4,3,1,1,0,0,0,0,0,0,1,1,0,0
125,0,3,214,0.25080236,NA,NA,1330.4755,3.0,1.0,0.0,2.563758389261745,0,1307.167846730529,1134.47,1355.1310861423221,1362.81,3.7548882872697504,2.954974215753282,1.9371778394606736,5.641060700748312,5.041722355775164,4.298762561410513,4.0,4.0,6.0,3.0,3.0,8.0,3,4,6,1,2,8,0,1,1,0,0,1,2,1,0,5,4,3,1,1,0,1,0,0,0,0,1,1,0,1
126,0,3,230,0.48029299299999995,NA,NA,1145.6205,2.0,0.0,1.0,2.563758389261745,0,1182.1736776343191,1129.53,1198.250936329588,1195.25,1.6195782947042972,1.0036164658813505,0.5632518029578932,3.3549060203531553,2.771048487156804,2.1706447316200865,7.0,1.0,4.0,7.0,3.0,3.0,7,1,5,4,0,6,1,1,0,0,0,0,2,1,0,5,4,3,0,1,1,0,0,0,1,0,1,0,0,0
127,0,3,242,0.228827685,NA,NA,936.036,1.0,1.0,0.0,2.563758389261745,0,897.3940024989588,888.9,777.5043695380774,829.59,2.1482833689897234,1.5492107351874438,1.0056817145105015,0.5000285097830783,3.5234937711829843,2.780089224214862,4.0,4.0,3.0,8.0,6.0,7.0,3,1,6,8,0,5,0,0,0,1,0,0,3,2,1,0,5,4,1,0,0,0,0,0,0,1,0,0,0,0
128,0,3,246,0.47778688799999997,NA,NA,1051.4075,3.0,0.0,1.0,2.563758389261745,0,1164.954185755935,1313.39,1094.390761548065,1177.34,4.162353231640736,4.961759258836537,5.9050390469974445,1.1722139100365894,2.98680310688178,2.067695622721658,4.0,1.0,0.0,8.0,3.0,6.0,4,5,7,8,1,6,1,0,0,1,0,1,3,5,4,0,1,2,1,1,0,1,0,0,1,1,0,0,0,1
129,0,3,262,0.250963726,NA,NA,1244.202,1.0,1.0,0.0,2.563758389261745,0,1289.7696793002915,1317.63,1299.3171036204744,1310.22,1.800622824704078,1.3207818066539403,0.8106793653041677,3.3041842667062156,2.8005669455305906,2.280743238620744,7.0,4.0,5.0,1.0,7.0,4.0,1,0,5,6,3,8,0,0,1,0,0,0,2,1,0,5,4,3,1,0,0,0,0,0,0,0,0,1,0,0
130,0,3,266,0.514325976,NA,NA,1458.073,4.0,0.0,1.0,2.563758389261745,0,1363.3515201999166,1204.87,1471.825218476904,1480.01,3.328229131979242,4.056358707799518,4.823879394497453,0.8091076210066603,1.784844370799874,2.721430632278498,4.0,3.0,3.0,2.0,0.0,1.0,4,5,3,2,0,7,1,0,1,1,1,0,3,4,5,0,1,2,1,1,0,1,0,1,1,1,0,1,1,0
131,0,3,339,0.548789741,NA,NA,1503.8825,4.0,0.0,1.0,2.563758389261745,2,1429.5685131195335,1110.88,1529.892634207241,1547.03,3.622718932320822,2.7101615706387747,1.8795612800668096,4.941402133900738,4.525099157022851,4.134234318479685,7.0,6.0,8.0,1.0,1.0,4.0,7,6,8,2,1,5,1,1,1,0,1,0,2,1,0,5,4,3,1,1,1,0,1,0,1,0,1,1,1,0
132,0,3,348,0.463240627,NA,NA,1191.882,4.0,0.0,1.0,2.563758389261745,0,1141.5739275301958,1108.97,1181.4319600499375,1176.66,3.7025637136612204,5.367032086049221,4.599385956309561,0.6947965085782926,1.7447667443657338,2.6627241439082354,1.0,5.0,4.0,7.0,0.0,2.0,8,3,4,7,0,2,0,0,1,1,1,1,3,4,5,0,2,1,1,1,1,0,1,0,0,1,0,1,1,1
133,0,3,376,0.478011165,NA,NA,1276.398,2.0,0.0,1.0,2.563758389261745,0,1287.1124531445232,1145.75,1273.45443196005,1341.81,3.6585602902068786,4.673739753584414,5.609292820552582,0.9874921883192656,1.7782626024636556,2.6018640265847353,0.0,4.0,1.0,2.0,3.0,6.0,8,0,2,7,3,6,0,0,0,0,1,1,3,4,5,0,1,2,0,1,1,0,0,0,0,0,0,0,1,1
134,0,3,413,0.483670262,NA,NA,1268.492,1.0,0.0,1.0,2.563758389261745,0,1106.6572261557685,1079.91,1149.9775280898875,1165.48,3.775138215424704,4.719186057120169,7.838496359870987,1.2387278022833925,2.0391236891200606,2.7034902815858004,1.0,4.0,0.0,7.0,6.0,5.0,4,2,7,8,6,1,0,0,0,0,1,0,3,4,5,0,1,2,0,1,0,0,0,0,0,0,0,0,1,0
135,0,3,441,0.535405538,NA,NA,1306.4805,3.0,0.0,1.0,2.563758389261745,0,1268.7734277384423,1159.8,1315.7353308364545,1290.77,3.0769818290045805,5.453340605227822,6.476211437668098,1.3033529214544615,2.076785966800344,4.340875216103996,2.0,4.0,1.0,6.0,8.0,5.0,2,0,4,6,1,5,1,0,0,1,0,1,3,4,0,5,1,2,1,0,1,1,0,0,1,1,0,0,0,1
136,0,3,512,0.482912377,NA,NA,1142.929,3.0,0.0,1.0,2.563758389261745,0,1135.951686797168,1156.67,1127.4207240948815,1091.87,6.547075352495085,5.65163840016794,4.499013846630987,3.4768785665737596,1.2534405605256325,2.3086229547088806,7.0,5.0,4.0,0.0,2.0,1.0,8,4,3,0,2,1,0,0,0,1,1,1,4,5,3,2,1,0,1,1,1,0,0,0,0,1,0,0,1,1
137,0,3,524,0.503694678,NA,NA,1015.9895,0.0,0.0,1.0,2.563758389261745,0,1078.3373594335694,1093.38,1065.6479400749063,1075.81,3.078369400108386,2.3985673264205616,1.8795763902508043,1.2696067474671509,0.7515001847432359,3.7736545663547076,7.0,1.0,4.0,1.0,4.0,6.0,5,3,8,2,0,1,0,0,0,0,0,0,4,3,2,1,0,5,0,0,0,0,0,0,0,0,0,0,0,0
138,0,3,546,0.601902705,NA,NA,1322.3375,3.0,0.0,1.0,2.563758389261745,0,1468.5585172844649,1531.27,1357.6554307116105,1423.31,1.7243848159178015,2.17102847328988,2.5643585527068353,0.9313607034846427,3.011565848473765,3.594757963353004,6.0,1.0,4.0,8.0,3.0,4.0,6,1,0,8,2,5,1,1,0,1,0,0,3,0,1,2,4,5,1,1,1,0,0,0,1,1,1,0,0,0
139,0,3,569,0.519666428,NA,NA,1528.276,0.0,0.0,1.0,2.563758389261745,0,1527.457309454394,1778.67,1585.7478152309614,1582.05,1.6495802789859226,2.1857492142707997,2.6894537753796612,4.033301706482234,3.4333355761027633,0.9702648672819123,3.0,3.0,6.0,2.0,7.0,1.0,2,4,3,6,0,7,0,0,0,0,0,0,5,0,1,2,4,3,0,0,0,0,0,0,0,0,0,0,0,0
140,0,3,578,0.495209216,NA,NA,1425.368,2.0,0.0,1.0,2.563758389261745,0,1360.4589754269055,1246.46,1379.398252184769,1421.72,2.715348070229993,1.8360915597359053,3.5473712840348526,0.747009894034818,4.243490931607994,5.1229102329589296,6.0,2.0,1.0,1.0,4.0,0.0,6,5,4,1,3,2,1,0,0,1,0,0,3,1,0,2,4,5,1,0,1,0,0,0,1,1,0,0,0,0
141,0,3,595,0.599681508,NA,NA,1560.314,2.0,0.0,1.0,2.563758389261745,0,1533.2902957101207,1353.04,1578.6966292134832,1596.97,0.9585413597114893,4.566968908371564,4.016139387746989,3.2625807967233413,2.5355023765750957,5.134757758081832,7.0,4.0,5.0,0.0,3.0,8.0,7,2,5,3,0,1,1,0,1,0,0,0,0,4,3,2,1,5,1,0,0,1,0,0,1,0,0,1,0,0
142,0,3,604,0.5233220470000001,NA,NA,1495.3035,3.0,0.0,1.0,2.563758389261745,0,1631.0145772594751,1892.84,1602.9263420724094,1599.77,2.342578390496783,3.8706725001475206,4.5580809837465495,0.7110641903445867,1.4237656974855781,3.0550415558582245,2.0,1.0,0.0,6.0,8.0,4.0,2,4,1,6,8,7,1,0,0,1,1,0,3,4,0,5,1,2,1,1,1,0,0,0,1,1,0,0,1,0
143,0,3,631,0.55464508,NA,NA,1491.818,4.0,0.0,1.0,2.563758389261745,0,1581.061224489796,1637.97,1556.307116104869,1548.31,13.114372123362955,2.635161456599235,3.266925687541516,1.4199222937377272,4.4682115927616906,5.474794501489669,3.0,2.0,0.0,3.0,7.0,4.0,7,2,0,3,5,4,0,1,1,1,0,1,3,1,2,4,5,0,1,1,1,0,1,0,0,1,1,1,0,1
144,0,3,671,0.233378607,NA,NA,1218.5635,2.0,1.0,0.0,2.563758389261745,0,1195.2723865056228,1092.85,1233.342072409488,1205.11,2.5245640284092588,1.8531914420473186,1.0204657472067993,4.1149140943243765,3.5794288236184,2.9712718327909897,3.0,2.0,1.0,3.0,1.0,7.0,4,2,1,0,3,6,0,1,1,0,0,0,2,1,0,5,4,3,1,1,0,0,0,0,0,0,1,1,0,0
145,0,3,678,0.5074554029999999,NA,NA,1586.167,3.0,0.0,1.0,2.563758389261745,0,1579.7217825905873,1657.3,1571.8726591760299,1584.82,2.2843950566311833,1.77290361868927,0.9823621380965051,4.452423160434591,3.573255885558865,3.1166018734347745,1.0,2.0,4.0,4.0,1.0,4.0,8,2,4,5,1,7,0,1,1,0,1,0,2,1,0,5,4,3,1,1,0,0,1,0,0,0,1,1,1,0
146,0,3,702,0.221142018,NA,NA,1438.8575,2.0,1.0,0.0,2.563758389261745,0,1298.539775093711,1286.45,1274.876404494382,1231.41,3.2756206009407833,2.4501027492551657,1.4761336059627865,4.762026566555505,4.2662961915493725,3.7381390752798325,5.0,6.0,7.0,5.0,0.0,3.0,0,6,7,4,3,8,0,1,1,0,0,0,2,1,0,5,4,3,1,1,0,0,0,0,0,0,1,1,0,0
147,0,3,740,0.25120853,NA,NA,1260.024,3.0,1.0,0.0,2.563758389261745,0,1252.2573927530195,1239.91,1276.7865168539327,1246.4,3.093081588154746,5.55677152944736,1.3193651555720862,2.2474631995728487,4.677446025280005,3.9343744725692886,3.0,1.0,2.0,6.0,4.0,8.0,3,4,2,6,7,0,1,0,1,1,0,0,2,3,0,5,4,1,1,1,1,0,0,0,1,1,0,1,0,0
148,0,3,748,0.223940348,NA,NA,1354.9945,3.0,1.0,0.0,2.563758389261745,0,1350.2211578508955,1218.73,1365.514357053683,1335.85,3.629383664123452,3.07032336935481,2.1258039758604355,1.4484511775681312,4.669811105586632,4.1503808336719885,4.0,5.0,1.0,0.0,4.0,6.0,7,5,1,0,8,3,0,1,1,1,0,0,3,2,1,0,5,4,1,1,1,0,0,0,0,1,1,1,0,0
0,1,0,4,NA,NA,NA,1462.094,0.0,NA,NA,2.0425531914893615,0,1247.454394002499,1144.38,1346.8464419475656,1252.77,5.369897111897444,3.4263765193095423,4.6667849812847635,1.0669552402969202,1.947597457746724,6.506051863997072,6.0,1.0,4.0,4.0,5.0,3.0,2,4,1,5,7,8,0,0,0,0,0,0,3,4,1,2,0,5,0,0,0,0,0,0,0,0,0,0,0,0
1,1,0,32,NA,NA,NA,1331.919,3.0,NA,NA,2.0425531914893615,0,1213.9366930445647,1150.24,1191.705368289638,1140.51,3.3472967390493977,6.778271278028569,1.1786884297139295,2.2020956227293027,5.802703959433984,4.426737165073064,1.0,8.0,2.0,4.0,2.0,6.0,1,8,2,0,7,5,1,1,1,0,0,0,2,3,0,5,4,1,1,0,1,0,0,1,1,0,1,1,0,0
2,1,0,38,NA,NA,NA,1324.2505,1.0,NA,NA,2.0425531914893615,0,1304.963765097876,1284.72,1342.9787765293383,1387.08,7.316393245860581,2.797425701983684,1.6478098823781693,6.404629437190579,5.53304413249316,3.9965588977297557,7.0,1.0,4.0,5.0,8.0,2.0,3,5,4,0,7,1,0,0,1,0,0,0,2,1,5,4,3,0,1,0,0,0,0,0,1,0,0,0,0,0
3,1,0,67,NA,NA,NA,1220.606,4.0,NA,NA,2.0425531914893615,2,1011.3823406913785,1039.02,1037.0973782771537,965.21,4.148494254043271,3.525779044741739,5.349294402977193,0.6625886611259375,1.8067563063827947,6.276450515837496,3.0,8.0,4.0,7.0,6.0,2.0,1,3,4,7,6,2,0,0,1,1,1,1,3,4,1,0,2,5,1,1,0,0,1,1,1,1,0,0,1,1
4,1,0,134,0.689807581,NA,NA,730.914,3.0,0.0,1.0,2.0425531914893615,0,719.1257809246148,938.05,615.394506866417,641.63,3.6697265962993697,2.7730600180120746,1.0525468005589573,1.844618409697432,4.764642004198322,5.772316774133287,5.0,2.0,3.0,4.0,6.0,8.0,2,1,3,4,6,0,0,0,1,1,1,0,2,3,1,0,4,5,1,1,0,0,1,0,1,1,0,0,1,0
5,1,0,152,0.37236727399999997,NA,NA,765.42,0.0,1.0,0.0,2.0425531914893615,0,632.7646813827572,788.37,675.3258426966293,582.44,6.828307242821666,4.157115540924224,5.108764490333215,1.5258785430596618,8.26756494545998,3.0531517731369604,1.0,8.0,5.0,4.0,3.0,7.0,8,3,0,7,2,4,0,0,0,0,0,0,3,5,1,2,0,4,0,0,0,0,0,0,0,0,0,0,0,0
6,1,0,166,0.313563768,NA,NA,727.6505,1.0,1.0,0.0,2.0425531914893615,1,614.9958350687214,696.39,653.7340823970037,582.9,4.406081143301435,3.4778393869078172,5.4382801102865415,0.6965272806428402,1.9902483095979733,6.6538108568347525,5.0,6.0,0.0,2.0,8.0,7.0,8,7,6,2,5,4,0,0,0,1,0,0,3,4,1,0,2,5,1,0,0,0,0,0,0,1,0,0,0,0
7,1,0,178,0.400295131,NA,NA,637.8215,2.0,1.0,0.0,2.0425531914893615,0,713.2357351103707,702.69,778.4219725343321,783.09,3.9082500070558126,4.6752600141917355,1.2922710334169096,1.8914111284734645,5.523239129238391,3.004200026399758,1.0,6.0,5.0,2.0,3.0,4.0,1,2,7,3,6,4,1,0,0,0,0,1,2,3,5,0,1,4,0,0,1,1,0,0,0,0,0,1,0,1
8,1,0,184,0.379511196,NA,NA,671.207,3.0,1.0,0.0,2.0425531914893615,0,772.0283215326947,694.04,746.7003745318352,815.98,2.2864143172664626,1.277976061674508,5.765196799974547,0.5672128240503298,4.797494695086243,3.5019293835639473,1.0,5.0,0.0,8.0,6.0,2.0,6,5,0,8,1,7,0,1,1,1,0,0,3,1,0,5,4,2,1,1,0,0,0,1,1,1,1,0,0,0
9,1,0,268,0.65739004,NA,NA,814.493,2.0,0.0,1.0,2.0425531914893615,1,881.8296543107039,714.09,893.9350811485643,898.33,5.745995050172496,7.233586412578461,0.8177390390060282,1.9298938846168312,2.8742415391507166,6.433623075855394,5.0,4.0,7.0,6.0,5.0,0.0,4,8,7,6,1,3,0,0,1,1,0,0,2,3,4,0,5,1,1,1,0,0,0,0,1,1,0,0,0,0
10,1,0,290,0.357125595,NA,NA,1027.738,1.0,1.0,0.0,2.0425531914893615,0,895.5281132861307,1067.06,846.8926342072409,798.1,4.6803221692798616,1.042376304917525,3.103641609911392,2.3444894039994324,6.527337661652837,5.687819609835515,6.0,7.0,4.0,1.0,0.0,5.0,4,7,1,2,5,6,0,1,0,0,0,0,1,3,2,0,5,4,1,0,0,0,0,0,0,0,1,0,0,0
11,1,0,375,0.6390374,NA,NA,1210.101,1.0,0.0,1.0,2.0425531914893615,0,1115.7342773844232,1137.06,1128.1822721598003,1155.61,1.0541843889136544,2.260336635024032,3.149182474497593,4.108624793555464,8.33194662898859,7.18819493801584,1.0,0.0,7.0,2.0,8.0,6.0,1,2,0,3,5,4,1,0,0,0,0,0,0,1,2,3,5,4,1,0,0,0,0,0,0,0,0,1,0,0
12,1,0,385,0.39251012399999996,NA,NA,1248.0035,2.0,1.0,0.0,2.0425531914893615,0,1246.085381091212,1292.04,1205.652933832709,1172.78,5.935476909120553,3.927994578624748,2.7435591945140914,0.8154120898157089,1.8805347364591398,5.047786276473744,1.0,5.0,7.0,3.0,8.0,6.0,2,4,7,3,5,8,0,0,1,1,0,0,3,4,2,1,5,0,1,0,1,0,0,0,1,1,0,0,0,0
13,1,0,398,0.397929884,NA,NA,979.0555,3.0,1.0,0.0,2.0425531914893615,0,1001.2798833819242,843.52,1000.3732833957553,1045.53,3.328233830739464,2.1216302785069274,1.319620811626919,0.6098839176793263,8.21587770772976,7.087938266568017,3.0,5.0,6.0,8.0,1.0,8.0,1,5,6,8,2,0,0,1,1,1,0,0,3,2,1,0,5,4,1,1,1,0,0,0,1,1,1,0,0,0
14,1,0,419,0.646281676,NA,NA,837.696,3.0,0.0,1.0,2.0425531914893615,0,767.198250728863,931.06,616.8676654182273,715.8,1.8018463922740011,2.9375515488241035,0.5517931506956302,4.808642783079449,5.832241560247894,6.551971050266275,7.0,2.0,6.0,1.0,4.0,5.0,7,2,6,3,8,1,1,1,1,0,0,0,2,0,1,3,4,5,1,1,1,0,0,0,1,0,1,1,0,0
15,1,0,424,0.391201251,NA,NA,1321.8685,2.0,1.0,0.0,2.0425531914893615,0,1228.645980841316,1305.16,1295.0262172284645,1307.88,4.876299928412209,1.7110671493901464,0.6867998233547041,2.7418774163620583,6.3004045219558975,4.124839883259028,2.0,5.0,4.0,7.0,4.0,6.0,0,5,4,1,8,2,0,1,1,0,0,0,2,1,3,5,0,4,1,1,0,0,0,0,1,0,1,0,0,0
16,1,0,439,0.640196313,NA,NA,1213.495,2.0,0.0,1.0,2.0425531914893615,0,1140.9525197834237,1174.52,1193.7715355805244,1165.56,2.0609958897784963,4.2756542442016325,0.8137200482265143,8.1626481035305,9.78650226921718,9.235376527006792,2.0,3.0,7.0,3.0,6.0,0.0,2,8,7,4,1,3,1,0,1,0,0,0,2,0,1,3,5,4,1,1,0,0,0,0,1,0,0,1,0,0
17,1,0,445,0.392436949,NA,NA,1381.636,2.0,1.0,0.0,2.0425531914893615,0,1503.829237817576,1571.33,1449.9113607990012,1421.97,1.6031388440578667,5.915279605952492,6.7710620689890675,0.7584004091690986,4.892624494775191,3.404955301307382,2.0,7.0,3.0,8.0,6.0,5.0,2,1,7,8,5,0,1,0,0,1,0,0,3,0,5,4,1,2,1,1,0,0,0,0,0,1,0,1,0,0
18,1,0,449,0.367113725,NA,NA,1140.9295,1.0,1.0,0.0,2.0425531914893615,4,957.0683048729696,1115.43,964.7715355805243,769.78,5.3591358984513136,3.1687186412805204,6.959354224558865,0.7845237066858317,1.9200161820185713,7.686500473115757,7.0,0.0,8.0,1.0,6.0,3.0,6,2,0,1,3,7,0,0,0,1,0,0,3,4,1,0,2,5,1,0,0,0,0,0,0,1,0,0,0,0
19,1,0,500,0.654065637,NA,NA,1280.37,3.0,0.0,1.0,2.0425531914893615,0,1083.8250728862974,1128.37,1002.5842696629213,1013.66,6.07888534515223,6.983432247205201,2.1032094051852255,0.912416107095396,3.6241959951498757,5.327320384867562,0.0,3.0,5.0,2.0,8.0,6.0,3,1,5,2,8,7,0,0,1,1,1,0,3,2,4,5,0,1,1,1,1,0,0,0,1,1,0,0,1,0
20,1,0,534,0.40986711600000003,NA,NA,991.029,4.0,1.0,0.0,2.0425531914893615,0,925.8671386922116,801.93,951.4868913857678,906.54,4.518346035762079,5.253783715746067,0.9740765544047463,1.8635744072080342,2.84667594367329,3.7898943350678564,6.0,4.0,2.0,8.0,5.0,1.0,4,6,2,8,5,1,0,0,1,1,1,1,2,3,4,5,0,1,1,1,1,1,0,0,1,1,0,0,1,1
21,1,0,604,0.40513491100000004,NA,NA,1091.12,3.0,1.0,0.0,2.0425531914893615,1,1148.71928363182,1072.82,1057.9413233458176,1151.23,6.904802917781126,4.073243020791779,1.4173635112588272,2.6895920483452755,9.207926680288438,7.944395550572153,6.0,4.0,7.0,1.0,2.0,0.0,1,4,7,8,6,0,0,1,1,0,0,1,2,3,1,0,5,4,1,0,1,0,1,0,1,0,1,0,0,1
22,1,0,611,0.386657019,NA,NA,1225.378,3.0,1.0,0.0,2.0425531914893615,0,1196.3573511037068,1118.44,1266.4119850187267,1243.33,4.7483057489212115,5.676415506114154,0.87705172515507,1.6693596784348301,3.741428391003865,2.7658870160967126,2.0,4.0,6.0,5.0,8.0,7.0,4,2,6,5,0,7,0,0,1,1,0,1,2,3,5,4,0,1,1,1,1,0,0,0,1,1,0,0,0,1
23,1,0,709,0.710377789,NA,NA,1328.1575,2.0,0.0,1.0,2.0425531914893615,0,1194.308204914619,1278.21,1168.4719101123596,1218.48,3.1049667336355924,5.344998869596111,1.0575074616608617,6.264711995134803,2.2257137863898606,4.465105312839569,7.0,2.0,6.0,0.0,8.0,4.0,4,1,6,5,8,0,0,0,1,0,1,0,2,4,0,5,1,3,1,1,0,0,0,0,1,0,0,0,1,0
24,1,0,761,0.40444916200000003,NA,NA,981.157,2.0,1.0,0.0,2.0425531914893615,0,768.7109537692628,856.94,767.0362047440699,745.25,8.025704777372994,5.114322141340381,1.3634559500424075,2.5401233380007397,3.58632990049864,6.705961944887349,5.0,7.0,5.0,6.0,3.0,4.0,6,2,5,3,1,4,0,0,1,0,0,1,2,3,4,1,5,0,1,0,0,0,1,0,1,0,0,0,0,1
25,1,0,770,0.348106315,NA,NA,1214.554,3.0,1.0,0.0,2.0425531914893615,0,1143.9737609329445,1220.8,1105.848938826467,1062.22,1.8365359532472212,5.180382752067089,3.1407128584041857,0.9987233425054001,6.076494249482494,4.46936663476481,5.0,0.0,1.0,2.0,7.0,6.0,4,0,7,2,8,6,0,1,0,1,0,1,3,0,2,5,1,4,1,0,0,1,1,0,0,1,1,0,0,1
26,1,0,774,0.388250228,NA,NA,1021.5515,3.0,1.0,0.0,2.0425531914893615,0,989.6793002915452,1233.98,816.1223470661673,865.86,6.324000163074743,4.804314463719493,3.541260298717134,2.7328025425958913,0.9901656319125323,1.8209532052860595,6.0,4.0,1.0,1.0,2.0,0.0,6,5,8,4,2,0,1,0,0,0,1,1,4,5,3,2,1,0,1,1,0,0,0,1,0,0,0,1,1,1
27,1,1,6,NA,NA,NA,1625.892,0.0,NA,NA,2.0425531914893615,0,1457.0645564348188,1622.76,1420.792759051186,1387.01,5.714377677937591,4.706393009230851,3.2341243877217494,1.2660764620331975,2.187390113515903,6.713839132602516,1.0,6.0,5.0,4.0,3.0,0.0,5,1,6,3,0,4,0,0,0,0,0,0,3,4,2,1,0,5,0,0,0,0,0,0,0,0,0,0,0,0
28,1,1,29,NA,NA,NA,1301.586,3.0,NA,NA,2.0425531914893615,1,1038.90254060808,1297.72,1028.4406991260923,967.82,4.805301464221884,3.718136661652352,1.292874295421825,1.9898255130219695,2.797396907341863,5.564893002246208,0.0,2.0,8.0,4.0,1.0,6.0,0,6,8,4,7,5,1,0,1,1,0,0,2,3,4,1,0,5,1,1,0,0,1,0,1,1,0,1,0,0
29,1,1,68,NA,NA,NA,1385.5455,1.0,NA,NA,2.0425531914893615,0,1439.579758433986,1474.64,1423.8701622971287,1458.0,6.246516347231591,5.43856976727966,2.3203386820096057,1.2320879508106373,3.1424604936091782,4.262094533665731,7.0,1.0,5.0,0.0,8.0,2.0,1,8,2,0,4,5,0,0,0,1,0,0,3,2,4,5,1,0,1,0,0,0,0,0,0,1,0,0,0,0
30,1,1,102,0.526874477,NA,NA,1124.696,3.0,0.0,1.0,2.0425531914893615,1,1043.6722199083715,1167.0,994.8863920099875,959.98,4.611375537155254,7.050961669770004,3.299084815045717,5.851232624499971,1.0775890160693962,2.0040195609699367,8.0,0.0,4.0,5.0,6.0,7.0,4,0,2,3,6,7,0,1,0,0,1,1,4,5,2,0,3,1,1,1,0,0,0,1,0,0,1,0,1,1
31,1,1,124,0.30163851,NA,NA,1139.494,1.0,1.0,0.0,2.0425531914893615,0,1183.5630987088714,1230.5,1149.4456928838952,1228.34,4.555799027082685,1.0293847896437,2.285741777062867,3.835420944879843,6.267518759994346,5.40365726165237,0.0,7.0,6.0,5.0,4.0,1.0,6,7,4,3,2,5,0,1,0,0,0,0,1,2,3,0,5,4,1,0,0,0,0,0,0,0,1,0,0,0
32,1,1,189,0.555654389,NA,NA,672.161,1.0,0.0,1.0,2.0425531914893615,0,835.6626405664307,785.85,799.9975031210986,876.9,4.179585625144682,6.137883000812508,1.7792636953454348,0.8984065159138481,2.9080832262088734,4.786147895553768,6.0,7.0,5.0,4.0,8.0,3.0,0,1,3,4,5,6,0,0,0,1,0,0,3,2,4,0,5,1,1,0,0,0,0,0,0,1,0,0,0,0
33,1,1,213,0.288546641,NA,NA,644.501,2.0,1.0,0.0,2.0425531914893615,0,517.5406080799667,527.26,528.4519350811486,515.49,4.187710560820051,2.9080695416259914,1.652403055425566,0.8121283602422409,5.931127207601094,4.907411826387033,6.0,2.0,1.0,4.0,0.0,8.0,6,3,8,4,7,1,1,0,0,1,0,0,3,2,1,0,5,4,1,0,0,1,0,0,0,1,0,1,0,0
34,1,1,258,0.51813421,NA,NA,532.588,4.0,0.0,1.0,2.0425531914893615,0,600.6118284048313,450.48,660.8277153558053,656.96,4.9238213511980575,3.956497282897544,3.148131897706662,1.1811205791309476,2.142408891329069,5.619717430479795,8.0,7.0,2.0,4.0,5.0,1.0,8,2,6,4,5,1,1,0,0,1,1,1,3,4,2,1,0,5,1,1,0,0,1,1,0,1,0,1,1,1
35,1,1,265,0.5135038789999999,NA,NA,1305.5555,2.0,0.0,1.0,2.0425531914893615,0,1208.6413994169095,1156.07,1268.19975031211,1203.66,4.458255609182743,3.4986040300527748,1.3693169426251188,2.4832949737392482,6.361587434360445,5.0974373623885185,2.0,3.0,1.0,4.0,5.0,7.0,7,8,1,4,3,6,0,0,1,1,0,0,2,3,1,0,5,4,1,1,0,0,0,0,1,1,0,0,0,0
36,1,1,294,0.547247018,NA,NA,860.0665,1.0,0.0,1.0,2.0425531914893615,0,687.6572261557684,619.1,799.9637952559301,766.61,0.8492158591761836,3.5140550639080175,4.552145528690744,6.568519416568961,2.3945441850928546,5.696542960892657,4.0,8.0,5.0,0.0,7.0,2.0,4,5,0,7,3,1,1,0,0,0,0,0,0,4,1,2,5,3,1,0,0,0,0,0,0,0,0,1,0,0
37,1,1,308,0.312359905,NA,NA,882.7855,4.0,1.0,0.0,2.0425531914893615,0,787.9221157850895,723.48,788.7465667915106,823.37,8.236595310123448,7.125365314203009,6.2775201940248735,1.1262094818766855,2.1970146513413056,3.4375565379950785,6.0,1.0,0.0,4.0,2.0,7.0,6,0,1,4,2,7,1,0,0,1,1,1,3,4,5,2,1,0,1,1,1,0,0,1,0,1,0,1,1,1
38,1,1,312,0.56148307,NA,NA,1040.5595,4.0,0.0,1.0,2.0425531914893615,0,1017.6426488962932,1094.42,1041.9950062421972,1041.64,5.693160588288265,4.909885599742665,4.109972724916588,3.198492301139595,0.7979237637619008,1.9973497525515995,8.0,6.0,4.0,7.0,0.0,1.0,8,3,2,7,0,1,1,0,0,1,1,1,4,5,3,2,1,0,1,1,1,0,0,1,0,1,0,1,1,1
39,1,1,321,0.310535389,NA,NA,775.279,1.0,1.0,0.0,2.0425531914893615,0,709.7097042898793,756.8,724.6479400749064,657.35,4.470775006365329,3.919335374046568,3.1274379582373513,1.2259843419869867,2.1771836958469066,6.630671653556419,2.0,3.0,8.0,5.0,1.0,0.0,1,3,5,8,0,2,0,1,0,0,0,0,3,4,2,1,0,5,0,0,0,1,0,0,0,0,1,0,0,0
40,1,1,330,0.518107981,NA,NA,822.18,1.0,0.0,1.0,2.0425531914893615,2,697.119117034569,842.07,686.9425717852685,633.2,4.312627134759168,5.06425339056932,0.8432240077754614,1.6095614747082436,2.504829089544728,3.457708225888382,2.0,1.0,3.0,4.0,0.0,7.0,4,7,3,6,1,0,0,0,1,0,0,0,2,3,4,5,0,1,1,0,0,0,0,0,1,0,0,0,0,0
41,1,1,334,0.313394897,NA,NA,1106.843,2.0,1.0,0.0,2.0425531914893615,1,874.5260308204914,1010.7,869.2821473158551,838.94,5.554133499373165,6.5060319073145365,1.7069306992798374,0.8594439441021677,3.794648872148173,4.906336161195213,6.0,4.0,8.0,7.0,5.0,1.0,4,5,8,7,3,6,0,0,1,1,0,0,3,2,4,5,0,1,1,1,0,0,0,0,1,1,0,0,0,0
42,1,1,352,0.57130613,NA,NA,878.2835,1.0,0.0,1.0,2.0425531914893615,1,912.6988754685548,975.71,804.5543071161048,848.67,3.2769907717447495,5.243654273851462,1.155552932676983,6.4194164837063,2.163864035691404,4.339852611346032,7.0,2.0,1.0,3.0,4.0,8.0,2,0,1,5,7,3,0,0,1,0,0,0,2,4,0,5,1,3,1,0,0,0,0,0,1,0,0,0,0,0
43,1,1,365,0.295846321,NA,NA,836.908,1.0,1.0,0.0,2.0425531914893615,1,690.356934610579,566.35,803.3408239700375,767.13,3.9369978934291794,4.960198392232087,0.5855729720369709,1.879629558355191,5.919701151528898,3.129097213847672,0.0,6.0,2.0,3.0,8.0,4.0,8,1,2,7,0,3,0,0,1,0,0,0,2,3,5,0,1,4,1,0,0,0,0,0,1,0,0,0,0,0
44,1,1,369,0.525971104,NA,NA,1359.45,1.0,0.0,1.0,2.0425531914893615,0,1284.9396084964599,1271.58,1319.1560549313358,1355.93,6.541282821259301,5.7978738720557885,1.0949866817654765,2.333870453190684,4.790626745319059,7.333213593237815,1.0,0.0,6.0,7.0,8.0,4.0,7,5,6,0,4,8,0,0,1,0,0,0,2,3,4,1,0,5,1,0,0,0,0,0,1,0,0,0,0,0
45,1,1,381,0.286969968,NA,NA,1112.2585,3.0,1.0,0.0,2.0425531914893615,1,909.2582257392753,916.52,879.7103620474408,895.74,5.7824085834263315,1.8151976980252584,0.969157232145335,2.8634059157875527,3.6143804433631885,4.510900482580837,2.0,7.0,7.0,0.0,4.0,8.0,2,6,7,3,0,8,1,0,1,0,0,1,2,1,3,4,5,0,1,0,0,0,1,1,1,0,0,1,0,1
46,1,1,388,0.560649736,NA,NA,759.697,1.0,0.0,1.0,2.0425531914893615,1,798.4631403581841,1033.1,703.1310861423221,762.35,5.150905591492119,6.558009087132632,1.0319674694674177,2.021985136832882,3.1186863827288107,4.159031382453577,6.0,8.0,8.0,2.0,0.0,4.0,1,0,8,4,2,3,0,0,1,0,0,0,2,3,4,5,0,1,1,0,0,0,0,0,1,0,0,0,0,0
47,1,1,416,0.5128511060000001,NA,NA,611.4505,3.0,0.0,1.0,2.0425531914893615,0,698.5385256143273,596.73,699.287141073658,695.12,6.3188285313281085,5.063385559971721,1.184102107511535,1.9281297138759328,2.887735107539811,7.021823772799507,8.0,3.0,1.0,2.0,6.0,7.0,6,3,1,2,7,8,0,1,1,1,0,0,2,3,4,1,0,5,1,1,0,1,0,0,1,1,1,0,0,0
48,1,1,420,0.312143233,NA,NA,955.8715,1.0,1.0,0.0,2.0425531914893615,1,1013.3052894627239,978.93,993.5081148564294,991.85,4.344190623951363,5.553035596734844,1.0078361339683397,3.4090216179338313,7.159628942549716,6.53639970612312,5.0,6.0,6.0,0.0,8.0,7.0,6,5,3,0,4,1,0,0,0,1,0,0,2,3,0,1,5,4,0,1,0,0,0,0,0,1,0,0,0,0
49,1,1,432,0.5204884329999999,NA,NA,1101.785,2.0,0.0,1.0,2.0425531914893615,1,1200.0220741357768,1147.83,1236.3308364544318,1188.62,4.2562067421085885,3.416651912976704,1.159298802000194,1.9930710398029987,6.982838963541326,5.007523099146965,2.0,6.0,4.0,1.0,8.0,0.0,3,5,4,2,8,1,0,0,1,0,1,0,2,3,1,0,5,4,1,0,0,0,0,1,1,0,0,0,1,0
50,1,1,455,0.562099637,NA,NA,887.489,1.0,0.0,1.0,2.0425531914893615,1,801.7771761765931,728.91,791.3932584269663,840.77,0.8741657037562618,1.6251989609972952,2.480522420334637,3.2871906322188806,4.359253642878684,5.031408397258929,7.0,6.0,8.0,1.0,2.0,0.0,4,8,3,6,2,1,0,0,0,0,1,0,0,1,2,3,4,5,0,0,0,0,1,0,0,0,0,0,1,0
51,1,1,468,0.273612866,NA,NA,880.6865,2.0,1.0,0.0,2.0425531914893615,0,881.9558517284465,828.44,828.4082397003746,898.28,3.3007534788057455,2.7172406066029,1.908839014287878,0.8625962446649282,4.947853188379668,4.132228702442262,0.0,7.0,4.0,3.0,8.0,2.0,1,7,8,3,4,0,0,1,0,1,0,0,3,2,1,0,5,4,1,0,1,0,0,0,0,1,1,0,0,0
52,1,1,485,0.297498734,NA,NA,855.2835,4.0,1.0,0.0,2.0425531914893615,2,930.4856309870887,1009.63,819.8052434456929,872.55,3.836821618903741,2.8144404844688324,1.9110120119275962,1.0773042056998747,5.901054197503981,5.06147142901591,7.0,0.0,6.0,8.0,1.0,4.0,1,0,6,8,2,4,0,1,1,1,0,1,3,2,1,0,5,4,1,1,1,0,1,0,1,1,1,0,0,1
53,1,1,529,0.543226792,NA,NA,798.6635,3.0,0.0,1.0,2.0425531914893615,1,838.3927530195751,796.23,808.7540574282148,886.46,2.4597631940041538,6.482098713164305,1.0182429737506027,3.8263455009227982,4.4660384302978855,8.313633521752308,4.0,7.0,6.0,8.0,0.0,3.0,4,2,6,0,7,3,1,0,1,0,0,1,2,0,3,4,1,5,1,1,0,0,0,1,1,0,0,1,0,1
54,1,1,537,0.29803224300000003,NA,NA,959.5785,1.0,1.0,0.0,2.0425531914893615,1,1048.304872969596,1114.61,947.8439450686642,1066.5,5.370095253246291,4.370915757996045,1.1138072589301373,2.3308264889037673,3.483943565923255,7.161683625570731,0.0,8.0,2.0,3.0,7.0,4.0,4,5,2,0,6,3,0,0,1,0,0,0,2,3,4,1,0,5,1,0,0,0,0,0,1,0,0,0,0,0
55,1,1,570,0.522988055,NA,NA,952.1285,4.0,0.0,1.0,2.0425531914893615,0,922.8883798417326,1039.1,830.6754057428215,913.76,3.163226562230193,4.635620340649439,1.765380401454422,0.5721951524074029,6.675015117187286,5.9474933979017806,7.0,2.0,4.0,8.0,5.0,1.0,7,2,4,8,1,3,1,1,1,1,0,0,3,2,0,1,5,4,1,1,1,1,0,0,1,1,1,1,0,0
56,1,1,574,0.28001373399999996,NA,NA,1149.752,3.0,1.0,0.0,2.0425531914893615,1,1054.1149521032903,1133.88,999.4082397003746,977.44,5.145796965843147,2.938123735422778,0.6578603528278109,1.6983382070402513,5.985387717003505,4.394322095725329,6.0,5.0,8.0,1.0,1.0,4.0,3,5,8,2,1,7,0,1,1,0,1,0,2,3,1,5,0,4,1,0,1,0,0,1,1,0,1,0,1,0
57,1,1,582,0.54952075,NA,NA,897.8305,1.0,0.0,1.0,2.0425531914893615,1,844.0999583506872,982.31,753.3995006242197,807.59,5.527620761449725,3.207690051051941,2.1699488282147286,1.2253072402554608,6.50399889154869,4.7613511472382015,7.0,3.0,6.0,1.0,0.0,4.0,3,6,5,1,7,0,0,0,0,1,0,0,3,2,1,5,0,4,1,0,0,0,0,0,0,1,0,0,0,0
58,1,1,638,0.296869243,NA,NA,1241.5305,1.0,1.0,0.0,2.0425531914893615,0,1152.3756768013327,1237.82,1075.3857677902622,1072.83,5.833705525464211,4.264909851388438,3.090711675258717,1.0341684064624133,2.058570297557708,6.649345691651433,1.0,2.0,4.0,3.0,6.0,8.0,6,1,2,3,0,4,0,0,0,1,0,0,3,4,2,1,0,5,1,0,0,0,0,0,0,1,0,0,0,0
59,1,1,656,0.3086702,NA,NA,1180.1345,0.0,1.0,0.0,2.0425531914893615,1,1163.8396501457726,1250.28,1133.8726591760299,1171.66,5.554155451724,3.9627836379149812,3.1712431616288086,1.4906281993053199,2.1324043212489414,4.907080830551422,7.0,2.0,1.0,8.0,6.0,0.0,2,7,6,1,3,5,0,0,0,0,0,0,3,4,2,1,5,0,0,0,0,0,0,0,0,0,0,0,0,0
60,1,1,660,0.281534718,NA,NA,1518.169,0.0,1.0,0.0,2.0425531914893615,1,1377.7950853810912,1343.3,1453.7702871410736,1403.47,4.414820174609304,3.216666851978516,1.0887630477500352,1.8884133496521827,6.11870263316996,5.359068330825721,6.0,8.0,2.0,7.0,4.0,1.0,8,7,1,4,5,3,0,0,0,0,0,0,2,3,1,0,5,4,0,0,0,0,0,0,0,0,0,0,0,0
61,1,1,669,0.536173435,NA,NA,1122.8625,1.0,0.0,1.0,2.0425531914893615,2,766.9067055393587,707.19,861.3782771535581,745.11,7.241008873026658,7.896795726533128,3.1142762409708666,1.1634763058591489,5.9530741416419914,8.98458488817323,1.0,6.0,4.0,3.0,7.0,5.0,0,7,1,3,6,8,0,0,0,1,0,0,3,2,4,0,1,5,1,0,0,0,0,0,0,1,0,0,0,0
62,1,1,678,0.299746141,NA,NA,1369.6615,0.0,1.0,0.0,2.0425531914893615,1,1043.3744273219493,1026.04,1139.9063670411986,1077.44,4.348804608967839,5.395714787075121,1.6704761122782656,0.7486655393995534,2.7731215986332245,3.7323660614374603,7.0,4.0,8.0,0.0,6.0,2.0,5,8,3,4,2,1,0,0,0,0,0,0,3,2,4,5,0,1,0,0,0,0,0,0,0,0,0,0,0,0
63,1,1,683,0.29616059100000003,NA,NA,1293.3055,3.0,1.0,0.0,2.0425531914893615,2,964.4739691795086,1139.0,1003.1285892634207,901.72,3.509886683105833,6.645265690443011,0.9751721762795569,1.7040250062937048,2.6305573302752236,4.397837893007818,5.0,1.0,2.0,8.0,7.0,4.0,3,4,2,8,7,5,0,0,1,1,1,0,2,3,4,0,5,1,1,1,1,0,0,0,1,1,0,0,1,0
64,1,1,712,0.297167928,NA,NA,1030.1735,3.0,1.0,0.0,2.0425531914893615,0,964.5031236984589,976.48,875.8014981273408,930.71,3.3139129153087197,5.608279685493471,2.352951322514855,0.7314950947893522,1.483003606172133,3.9605941047384476,3.0,7.0,0.0,8.0,6.0,1.0,6,4,0,8,3,1,0,0,1,1,0,1,3,4,2,0,5,1,1,0,1,0,1,0,1,1,0,0,0,1
65,1,1,723,0.29456652699999997,NA,NA,1061.3175,2.0,1.0,0.0,2.0425531914893615,0,1043.997084548105,1046.79,1014.601747815231,991.88,6.430654091675933,5.583644301212189,4.784257142425304,0.8795408936657623,2.32867031189744,3.5433725710217914,1.0,0.0,7.0,5.0,6.0,4.0,6,2,1,5,3,4,0,0,0,1,0,1,3,4,5,2,1,0,1,0,1,0,0,0,0,1,0,0,0,1
66,1,1,729,0.295647799,NA,NA,1572.3795,1.0,1.0,0.0,2.0425531914893615,0,1575.1137026239066,1637.42,1571.9225967540574,1541.22,2.111503117376742,4.551405991052889,0.6874583938806609,3.43139505479121,7.102258326712217,5.566899789228955,4.0,2.0,6.0,5.0,0.0,8.0,4,3,5,2,7,1,1,0,0,0,0,0,2,0,3,1,5,4,0,1,0,0,0,0,0,0,0,1,0,0
67,1,1,797,0.523995488,NA,NA,620.328,3.0,0.0,1.0,2.0425531914893615,1,829.6693044564764,898.52,819.9687890137328,875.11,6.390168254791206,1.8325115456536878,1.0229518955575259,2.9824760370138392,5.407147685438758,3.8623761509661563,8.0,3.0,1.0,4.0,7.0,6.0,2,3,1,8,7,0,0,1,1,0,1,0,2,1,3,5,4,0,1,1,0,0,1,0,1,0,1,0,1,0
68,1,2,5,NA,NA,NA,1493.274,1.0,NA,NA,2.0425531914893615,0,1393.1357767596835,1391.13,1506.2571785268415,1479.42,5.3636053400659875,6.1074624593420594,2.1795018070779406,0.781171554201137,3.0126873184117358,3.924415490148931,7.0,8.0,3.0,5.0,6.0,2.0,8,4,3,6,5,7,0,0,1,0,0,0,3,2,4,5,0,1,0,1,0,0,0,0,1,0,0,0,0,0
69,1,2,16,NA,NA,NA,1346.68,1.0,NA,NA,2.0425531914893615,0,1124.8671386922115,1130.4,1170.6279650436954,1072.72,2.3762892373324576,1.7370313636365609,3.3114722130276277,0.6015186465256193,6.966881029947217,6.007540204875113,0.0,7.0,2.0,1.0,6.0,3.0,1,7,5,3,8,4,0,1,0,0,0,0,3,1,0,2,5,4,0,1,0,0,0,0,0,0,1,0,0,0
70,1,2,62,NA,NA,NA,1318.941,1.0,NA,NA,2.0425531914893615,1,1090.23781757601,1215.71,1017.5355805243446,960.21,3.8476917388170477,4.519700524318978,2.0485155506748924,0.9583680793430176,6.142743878501278,5.391208283050219,1.0,3.0,8.0,2.0,2.0,4.0,8,6,0,7,2,5,0,0,0,0,1,0,3,2,0,1,5,4,0,0,0,0,0,1,0,0,0,0,1,0
71,1,2,66,NA,NA,NA,1492.0675,2.0,NA,NA,2.0425531914893615,0,1471.7942523948354,1392.71,1568.8951310861423,1501.65,5.780185694080501,7.163842653531901,2.1723915261645743,0.8931427983316098,8.06725715639459,4.49995880370534,1.0,0.0,3.0,5.0,7.0,2.0,8,4,3,5,2,1,0,0,1,1,0,0,3,2,5,0,1,4,1,1,0,0,0,0,1,1,0,0,0,0
72,1,2,85,0.47926020799999997,NA,NA,1458.1255,2.0,0.0,1.0,2.0425531914893615,0,1371.5210329029571,1437.18,1346.5430711610486,1317.57,3.3727842736780076,4.147772392324441,2.0764275371429903,0.877281797195792,5.99550176374305,5.195352829871808,1.0,2.0,5.0,4.0,0.0,6.0,6,3,5,4,1,7,0,0,1,1,0,0,3,2,0,1,5,4,1,1,0,0,0,0,1,1,0,0,0,0
73,1,2,100,0.5486628020000001,NA,NA,1229.6335,2.0,0.0,1.0,2.0425531914893615,0,1154.6780508121617,1056.4,1164.0961298377028,1239.24,5.815951490436419,4.927773344543311,0.8491730948571785,1.8418521283947484,2.9045697096908043,6.4718295744924035,6.0,1.0,5.0,7.0,2.0,0.0,8,1,5,0,3,2,0,1,1,0,0,0,2,3,4,1,0,5,1,0,0,1,0,0,1,0,1,0,0,0
74,1,2,137,0.533443361,NA,NA,1020.8625,2.0,0.0,1.0,2.0425531914893615,0,952.9720949604332,848.78,896.9625468164794,1009.55,7.253057577595428,2.8619123006437803,1.005454446449221,1.8945069801347927,6.429376293799578,5.549364137328666,3.0,7.0,5.0,8.0,6.0,2.0,1,0,5,8,3,7,0,0,1,1,0,0,2,3,1,5,4,0,1,1,0,0,0,0,1,1,0,0,0,0
75,1,2,143,0.22704195100000002,NA,NA,1386.98,3.0,1.0,0.0,2.0425531914893615,0,1370.701374427322,1310.06,1357.1448189762796,1350.4,3.7069771698397744,4.649856867821654,0.9462532326260771,1.938565918489985,7.537636450253558,6.650076391330003,7.0,3.0,2.0,4.0,6.0,1.0,7,1,2,4,0,8,1,0,1,1,0,0,2,3,0,1,5,4,1,1,1,0,0,0,1,1,0,1,0,0
76,1,2,158,0.477165326,NA,NA,1235.7835,1.0,0.0,1.0,2.0425531914893615,0,1224.591420241566,1150.94,1262.107365792759,1309.68,9.295818761391274,5.561419969283634,0.7703302289282874,3.4239765856791564,2.625111721785288,8.528264221915379,0.0,7.0,3.0,1.0,3.0,8.0,0,1,7,3,6,2,1,0,0,0,0,0,2,4,3,1,5,0,0,0,0,0,0,1,0,0,0,1,0,0
77,1,2,163,0.21830691100000002,NA,NA,1216.069,1.0,1.0,0.0,2.0425531914893615,3,1051.7434402332362,1156.77,1060.0661672908864,1046.38,0.9656146358893238,6.092843334055033,3.349428112750502,2.2300820191148887,4.301108137565279,5.133589178004513,7.0,2.0,5.0,3.0,8.0,1.0,7,1,8,5,2,3,1,0,0,0,0,0,0,3,2,4,5,1,1,0,0,0,0,0,0,0,0,1,0,0
78,1,2,172,0.241998724,NA,NA,1144.566,4.0,1.0,0.0,2.0425531914893615,1,1052.5106205747604,995.99,1040.3695380774031,1013.42,7.572171204388724,2.669558104878888,1.4067043619888864,0.7028276053379159,9.524153715492503,5.0852997080337445,6.0,4.0,7.0,1.0,2.0,8.0,5,4,7,1,2,3,0,1,1,1,1,0,3,2,1,5,0,4,1,1,1,0,0,1,1,1,1,0,1,0
79,1,2,178,0.481560263,NA,NA,1466.379,2.0,0.0,1.0,2.0425531914893615,0,1409.4831320283215,1254.93,1487.7315855181023,1433.05,1.5129449021660548,0.974738831171635,2.463007865499094,4.423583724128548,5.215267603433858,6.206403130120634,5.0,1.0,0.0,3.0,6.0,8.0,8,5,0,3,1,7,0,0,1,1,0,0,1,0,2,3,4,5,0,0,1,1,0,0,1,1,0,0,0,0
80,1,2,189,0.22853680199999998,NA,NA,1174.9865,2.0,1.0,0.0,2.0425531914893615,0,1038.7017909204499,916.65,1093.7303370786517,985.38,3.6479147975096566,2.0174438511612607,2.9691740527778165,0.8247669273296196,4.791949873374506,5.863238849845402,0.0,7.0,8.0,6.0,1.0,4.0,8,7,4,6,0,1,0,1,0,1,0,0,3,1,2,0,4,5,1,1,0,0,0,0,0,1,1,0,0,0
81,1,2,202,0.512254116,NA,NA,913.4745,2.0,0.0,1.0,2.0425531914893615,0,1026.6609745939193,1141.7,826.4344569288389,1139.69,2.0421083151795756,5.506323274879833,6.69780393813744,0.8751507085898993,4.674130751051962,3.3388382416787863,1.0,3.0,7.0,8.0,6.0,4.0,1,0,6,2,3,4,1,0,0,0,0,1,3,0,5,4,1,2,0,1,1,0,0,0,0,0,0,1,0,1
82,1,2,226,0.492777914,NA,NA,883.0575,2.0,0.0,1.0,2.0425531914893615,0,765.9104539775094,727.68,746.9650436953808,799.7,6.666914984817595,5.08368692298518,0.9974982872890905,3.1866240620001918,5.891231233234976,2.19519944851163,5.0,2.0,4.0,0.0,7.0,6.0,0,1,4,3,2,6,0,0,1,0,0,1,2,5,3,1,4,0,1,1,0,0,0,0,1,0,0,0,0,1
83,1,2,241,0.47901169899999996,NA,NA,1462.256,1.0,0.0,1.0,2.0425531914893615,2,1408.0329029571012,1499.96,1433.1348314606741,1348.88,3.8119898038457904,4.428311747330554,0.9339428104203762,1.9339362532246014,5.39589582269582,3.0612578925120033,0.0,4.0,2.0,5.0,3.0,8.0,3,8,2,6,1,5,0,0,1,0,0,0,2,3,5,0,1,4,1,0,0,0,0,0,1,0,0,0,0,0
84,1,2,296,0.266063253,NA,NA,920.3985,1.0,1.0,0.0,2.0425531914893615,0,1197.271137026239,1119.59,1169.2259675405742,1121.84,5.18364595476578,2.0633995296493595,1.160449162203804,2.7852010935121143,4.031694062915449,5.847445701429933,7.0,0.0,4.0,6.0,1.0,8.0,7,3,0,1,6,4,1,0,0,0,0,0,2,1,3,4,0,5,0,0,0,0,1,0,0,0,0,1,0,0
85,1,2,316,0.539350254,NA,NA,959.8165,2.0,0.0,1.0,2.0425531914893615,0,1103.1316118284049,898.82,1195.9588014981273,1166.42,4.872121569268529,3.7606201624648747,0.66589975986426,1.4656937498803018,6.552460559180872,5.929219063649725,2.0,8.0,4.0,5.0,0.0,1.0,3,6,4,5,2,8,0,0,1,1,0,0,2,3,1,0,5,4,1,1,0,0,0,0,1,1,0,0,0,0
86,1,2,344,0.511530449,NA,NA,905.875,1.0,0.0,1.0,2.0425531914893615,0,1048.0724698042482,848.14,1109.3333333333333,1120.83,0.9238635453275492,2.041535558389114,3.0663933171335884,3.818487414602714,5.561325887780185,4.5450936923480185,4.0,3.0,1.0,8.0,2.0,6.0,4,0,6,2,5,7,1,0,0,0,0,0,0,1,2,3,5,4,1,0,0,0,0,0,0,0,0,1,0,0
87,1,2,399,0.484503588,NA,NA,1246.2435,3.0,0.0,1.0,2.0425531914893615,2,1158.8713036234901,954.2,1222.3770287141074,1186.79,5.493081160691872,2.8211721586030762,0.7563685337854622,1.5013874170836061,8.003660910873805,6.939529256069363,7.0,6.0,8.0,1.0,1.0,2.0,0,6,8,1,4,3,0,1,1,1,0,0,2,3,1,0,5,4,1,1,1,0,0,0,1,1,1,0,0,0
88,1,2,424,0.48763621700000004,NA,NA,1213.424,2.0,0.0,1.0,2.0425531914893615,0,1301.1003748438152,1361.93,1253.7478152309614,1286.61,4.579101019871814,5.194577940395902,1.7626871045904409,0.851865251338495,3.6757090395503837,3.1547763326288987,1.0,0.0,5.0,4.0,8.0,7.0,2,8,5,4,6,3,0,0,1,1,0,0,3,2,5,4,0,1,1,1,0,0,0,0,1,1,0,0,0,0
89,1,2,436,0.532978656,NA,NA,1142.0955,0.0,0.0,1.0,2.0425531914893615,0,1381.2882132444815,1511.1,1242.4556803995006,1455.13,1.6914283482401515,0.9463835212545746,2.5480595404778796,3.6428780159185408,4.474788580330824,5.057924271231968,7.0,0.0,8.0,5.0,2.0,1.0,0,2,7,8,3,5,0,0,0,0,0,0,1,0,2,3,4,5,0,0,0,0,0,0,0,0,0,0,0,0
90,1,2,440,0.547342715,NA,NA,896.1655,4.0,0.0,1.0,2.0425531914893615,0,1088.1024573094544,1179.12,1007.9637952559301,1175.45,6.274955475216302,2.8760136925657207,0.9870994301800238,1.8187160611669242,4.090660358074274,4.802954558349484,1.0,3.0,7.0,6.0,8.0,0.0,1,3,7,6,4,8,1,1,1,1,0,0,2,3,1,4,5,0,1,1,1,0,0,1,1,1,1,1,0,0
91,1,2,615,0.488879329,NA,NA,1655.9345,3.0,0.0,1.0,2.0425531914893615,0,1572.3561016243232,1433.8,1621.656679151061,1653.09,4.404450682332936,1.7901238369177008,1.0035984749674753,2.684385634951468,3.4051044062362053,5.947983762102922,7.0,5.0,1.0,0.0,2.0,4.0,8,5,1,0,3,7,0,1,1,1,0,0,2,1,3,4,0,5,1,1,1,0,0,0,1,1,1,0,0,0
92,1,2,626,0.505336845,NA,NA,1355.823,1.0,0.0,1.0,2.0425531914893615,0,1363.3386089129529,1526.08,1290.4369538077403,1320.84,5.777518340903953,2.3774786556150502,1.3320141966141819,3.410432840489193,6.848991489045147,5.001371594285047,8.0,1.0,5.0,7.0,3.0,4.0,4,8,1,5,3,7,0,0,0,0,1,0,2,1,3,5,0,4,0,0,0,0,0,1,0,0,0,0,1,0
93,1,2,680,0.504358207,NA,NA,1694.028,3.0,0.0,1.0,2.0425531914893615,2,1651.761765930862,1579.23,1630.7253433208489,1685.81,5.607593460707903,4.391389318670008,3.4636074212630774,2.249518972675105,0.9218336656122119,6.263506896601939,6.0,3.0,7.0,1.0,4.0,2.0,0,3,7,1,8,4,0,1,1,1,0,0,4,3,2,1,0,5,0,1,1,1,0,0,1,1,1,0,0,0
94,1,2,713,0.48037968299999995,NA,NA,1692.4635,1.0,0.0,1.0,2.0425531914893615,2,1669.0374843815077,1587.5,1651.0986267166043,1714.61,4.5957796748034525,1.524907792999329,0.8464609816919619,2.5812098710312057,5.467217870240347,3.8447427113205777,0.0,7.0,8.0,1.0,6.0,3.0,3,7,1,8,5,6,0,1,0,0,0,0,2,1,3,5,0,4,0,1,0,0,0,0,0,0,1,0,0,0
95,1,2,725,0.483403785,NA,NA,1628.776,2.0,0.0,1.0,2.0425531914893615,1,1577.9187838400667,1425.87,1507.3895131086142,1618.37,6.920843243964555,2.674122483284009,1.9297975223498725,0.971153185500043,5.034015310196992,5.865425532067093,3.0,2.0,7.0,5.0,6.0,1.0,0,8,7,1,6,5,0,0,1,0,1,0,3,2,1,4,5,0,0,1,0,1,0,0,1,0,0,0,1,0
96,1,2,781,0.48175355799999997,NA,NA,1613.674,6.0,0.0,1.0,2.0425531914893615,1,1519.3177842565597,1340.36,1595.749063670412,1498.11,4.924555472022803,3.7893780271788273,2.868174992737295,0.9892818359694502,2.0695048490460977,5.539788635923287,1.0,7.0,0.0,3.0,6.0,8.0,1,7,0,3,6,8,1,1,1,1,1,1,3,4,2,1,0,5,1,1,1,1,1,1,1,1,1,1,1,1
97,1,3,16,NA,NA,NA,1631.2245,2.0,NA,NA,2.0425531914893615,1,1485.3240316534777,1520.1,1421.796504369538,1269.92,4.962699249656907,2.4911408009529623,0.6520600855792509,1.587550109091353,4.259479638053563,3.387492063654463,0.0,8.0,2.0,1.0,4.0,6.0,2,8,7,1,6,4,0,1,0,1,0,0,2,3,1,5,4,0,0,1,1,0,0,0,0,1,1,0,0,0
98,1,3,19,NA,NA,NA,1774.244,1.0,NA,NA,2.0425531914893615,4,1547.6668054977092,674.66,1645.481897627965,1597.79,6.70744330092657,2.8677958157677494,0.7958978753831616,4.306442843918376,7.707409659661607,8.30626694001603,2.0,1.0,5.0,8.0,7.0,0.0,4,8,5,1,6,7,0,0,1,0,0,0,2,1,3,0,4,5,1,0,0,0,0,0,1,0,0,0,0,0
99,1,3,44,NA,NA,NA,1589.4625,2.0,NA,NA,2.0425531914893615,4,1405.3590170762182,1062.52,1427.5630461922597,1482.3,5.023540047503047,1.784444165050445,0.8399853232858732,3.3758929546365835,6.431767959660647,4.375997869767161,2.0,0.0,1.0,3.0,5.0,7.0,7,0,1,2,4,8,0,1,1,0,0,0,2,1,3,5,0,4,1,1,0,0,0,0,1,0,1,0,0,0
100,1,3,55,NA,NA,NA,1473.5105,3.0,NA,NA,2.0425531914893615,0,1503.0491461890879,1638.33,1471.8451935081148,1470.15,4.90597294957297,3.4740681440889603,2.4585267349702917,0.8436687567027548,1.5718524676594825,4.298658882420568,2.0,1.0,3.0,7.0,5.0,8.0,4,6,3,7,5,0,0,0,1,1,1,0,3,4,2,1,5,0,1,1,1,0,0,0,1,1,0,0,1,0
101,1,3,81,0.526993837,NA,NA,1593.4975,5.0,0.0,1.0,2.0425531914893615,3,1441.7184506455644,0.0,1535.207240948814,1537.77,7.364980355498119,2.7490045179074514,1.8064116259647562,0.7194130340521951,5.197210226830066,3.8705837643265113,7.0,2.0,4.0,5.0,8.0,6.0,3,2,4,5,8,6,0,1,1,1,1,1,3,2,1,5,4,0,1,1,1,1,1,0,1,1,1,0,1,1
102,1,3,88,0.30245245800000004,NA,NA,1586.7605,0.0,1.0,0.0,2.0425531914893615,0,1426.2819658475635,1579.29,1371.3795255930088,1441.59,5.4463346273805655,6.365863011058536,2.9351875372231007,0.8158040960806829,4.00723087629558,4.933928270551405,6.0,0.0,3.0,7.0,4.0,8.0,3,1,5,8,2,6,0,0,0,0,0,0,3,2,4,5,0,1,0,0,0,0,0,0,0,0,0,0,0,0
103,1,3,116,0.30702748,NA,NA,1478.505,4.0,1.0,0.0,2.0425531914893615,1,1305.4014993752603,1455.58,1372.7840199750312,1295.61,3.830105910114071,2.702808789035771,0.7418409241417976,1.838629124154977,5.757359525623542,4.885735162846686,3.0,7.0,0.0,6.0,2.0,4.0,3,7,0,6,4,2,1,1,1,1,0,0,2,3,1,0,5,4,1,1,1,1,0,0,1,1,1,1,0,0
104,1,3,122,0.30456872100000004,NA,NA,1724.5125,0.0,1.0,0.0,2.0425531914893615,1,1609.0570595585173,1596.54,1712.3320848938827,1651.32,2.497716812962608,3.481871492078426,1.017181563332997,1.8353505263003171,5.209217592557252,4.393946624997625,7.0,8.0,4.0,5.0,1.0,6.0,3,0,5,6,4,7,0,0,0,0,0,0,2,3,0,1,5,4,0,0,0,0,0,0,0,0,0,0,0,0
105,1,3,150,0.546588163,NA,NA,1604.53,5.0,0.0,1.0,2.0425531914893615,1,1637.3344439816742,1527.48,1701.5942571785267,1667.84,3.7371787579922966,2.649652454372699,0.7292944428900228,1.8650030205863004,5.6414727803676215,4.665512885318094,4.0,7.0,6.0,2.0,8.0,1.0,4,7,6,2,5,1,1,1,1,1,0,1,2,3,1,0,5,4,1,1,1,1,1,0,1,1,1,1,0,1
106,1,3,171,0.293183529,NA,NA,1564.857,2.0,1.0,0.0,2.0425531914893615,0,1356.4373177842565,1437.85,1293.7977528089887,1264.37,4.776957558124195,3.265779392559125,5.7683009194042825,6.576635514285954,0.7452412577622454,1.666518417025145,2.0,1.0,6.0,8.0,3.0,4.0,6,5,8,1,3,4,0,0,0,0,1,1,4,5,1,0,2,3,1,1,0,0,0,0,0,0,0,0,1,1
107,1,3,183,0.289824914,NA,NA,1774.078,1.0,1.0,0.0,2.0425531914893615,1,1606.2886297376094,1577.14,1724.968789013733,1690.7,4.223574715109862,5.088105617605834,0.5851726980035892,1.3372445580262138,2.19244143497599,3.1041105919521215,0.0,4.0,2.0,5.0,6.0,8.0,3,0,2,7,5,6,0,0,1,0,0,0,2,3,4,5,0,1,1,0,0,0,0,0,1,0,0,0,0,0
108,1,3,191,0.516901077,NA,NA,1635.485,2.0,0.0,1.0,2.0425531914893615,1,1509.8071636817992,1302.96,1577.8114856429463,1542.61,4.053229889294016,2.7973116637967905,0.9807848507098242,1.7185771341446525,5.5404511977849324,4.908153074597067,0.0,3.0,5.0,7.0,8.0,4.0,0,1,5,2,7,8,1,0,1,0,0,0,2,3,1,0,5,4,1,0,0,1,0,0,1,0,0,1,0,0
109,1,3,238,0.545687261,NA,NA,1532.895,1.0,0.0,1.0,2.0425531914893615,1,1584.6518117451062,1343.28,1627.307116104869,1654.88,4.488589481630697,3.9129036203412397,0.6513060080724244,1.4023518095145846,2.3134849870148173,3.146121404482983,7.0,8.0,3.0,5.0,2.0,0.0,0,4,3,1,5,2,0,0,1,0,0,0,2,3,4,5,1,0,1,0,0,0,0,0,1,0,0,0,0,0
110,1,3,243,0.273782592,NA,NA,1689.183,0.0,1.0,0.0,2.0425531914893615,0,1545.8625572678052,1578.61,1593.171036204744,1529.2,2.922977753716623,7.650153937296636,0.8750797198208602,1.7007338642379182,6.394967836955402,4.330254587401214,8.0,1.0,5.0,6.0,2.0,7.0,5,3,6,8,1,4,0,0,0,0,0,0,2,3,0,5,4,1,0,0,0,0,0,0,0,0,0,0,0,0
111,1,3,249,0.276116384,NA,NA,1713.1295,4.0,1.0,0.0,2.0425531914893615,1,1666.1628488129945,1622.89,1715.5717852684145,1696.77,2.8985008825129626,3.770041427222168,1.1724408476802637,2.145826045580179,6.322316104158745,4.633770926364377,7.0,3.0,2.0,0.0,4.0,8.0,7,4,2,0,3,8,1,0,1,1,0,1,2,3,0,1,5,4,1,1,1,0,1,0,1,1,0,1,0,1
112,1,3,265,0.544187849,NA,NA,1652.16,3.0,0.0,1.0,2.0425531914893615,0,1420.8071636817992,1257.66,1550.605493133583,1532.8,5.065288572204736,2.970779425344517,1.6896986740503053,0.8203522240437451,5.809319884810975,4.313801442982367,2.0,0.0,1.0,3.0,8.0,4.0,7,0,1,3,4,6,0,1,1,1,0,0,3,2,1,5,0,4,1,1,1,0,0,0,1,1,1,0,0,0
113,1,3,270,0.274888858,NA,NA,1544.0825,0.0,1.0,0.0,2.0425531914893615,2,1538.9216992919617,1614.36,1458.0287141073659,1497.35,4.678605894576322,1.5019156989819749,2.2866338407748117,0.769191557639715,6.358151178712433,5.638124334123859,6.0,4.0,4.0,5.0,2.0,3.0,4,5,8,3,6,1,0,0,0,0,0,0,3,1,2,0,5,4,0,0,0,0,0,0,0,0,0,0,0,0
114,1,3,278,0.543971462,NA,NA,1685.512,1.0,0.0,1.0,2.0425531914893615,0,1533.6197417742608,1638.83,1534.7103620474406,1501.02,5.718731085697073,4.6787016866528575,0.9277995733264106,2.3759665092657087,3.4642905099990458,6.43834568224338,8.0,4.0,2.0,1.0,6.0,0.0,3,7,1,2,6,4,0,0,0,0,1,0,2,3,4,1,0,5,0,0,1,0,0,0,0,0,0,0,1,0
115,1,3,292,0.505243998,NA,NA,1562.654,1.0,0.0,1.0,2.0425531914893615,1,1434.5376926280717,1369.58,1393.2759051186017,1442.6,5.44287014728252,4.826551339849175,4.132230698111016,1.275611194785597,2.0446054663625546,3.076139875818626,7.0,8.0,0.0,3.0,4.0,1.0,5,6,8,3,1,4,0,0,0,1,0,0,3,4,5,2,1,0,1,0,0,0,0,0,0,1,0,0,0,0
116,1,3,311,0.26351868100000003,NA,NA,1563.672,2.0,1.0,0.0,2.0425531914893615,2,1447.2948771345273,1477.04,1573.0936329588014,1519.93,5.220187495884602,1.5079651396663394,0.6550105385540519,2.757254325397298,3.659826656255973,4.468438649024392,7.0,2.0,5.0,0.0,1.0,3.0,4,5,2,0,1,8,0,0,0,1,1,0,2,1,3,4,5,0,0,0,1,1,0,0,0,1,0,0,1,0
117,1,3,316,0.27995757,NA,NA,1620.9205,3.0,1.0,0.0,2.0425531914893615,1,1540.3040399833403,1506.34,1507.6729088639202,1548.46,3.567480813788279,5.303606144036166,1.5436870313205873,0.6184302244528226,2.5755681168629962,4.208516827902713,7.0,0.0,6.0,2.0,5.0,8.0,1,8,6,2,5,3,0,0,1,1,1,0,3,2,4,0,5,1,1,1,1,0,0,0,1,1,0,0,1,0
118,1,3,336,0.24998120699999998,NA,NA,1759.0185,2.0,1.0,0.0,2.0425531914893615,1,1697.2090795501874,1659.82,1749.210986267166,1707.38,5.402799409395811,4.611179961666494,0.7255502841398993,1.835947516205124,2.8443558367725927,3.668133197741554,3.0,7.0,5.0,8.0,1.0,2.0,7,4,5,1,8,2,0,0,1,0,0,1,2,3,4,5,1,0,1,0,0,1,0,0,1,0,0,0,0,1
119,1,3,367,0.487227961,NA,NA,1565.1255,2.0,0.0,1.0,2.0425531914893615,1,1560.225322782174,1437.9,1584.569288389513,1594.19,7.558645420212997,2.959158363973984,0.8813635089773015,1.7590960421057389,6.223625747199549,5.110670068426771,0.0,8.0,2.0,3.0,7.0,6.0,5,8,2,0,6,3,0,1,1,0,0,0,2,3,1,5,4,0,1,0,1,0,0,0,1,0,1,0,0,0
120,1,3,375,0.278798752,NA,NA,1703.87,1.0,1.0,0.0,2.0425531914893615,0,1668.6318200749688,1661.5,1661.541822721598,1624.35,5.725550854331232,1.4621006917259365,0.7975035330455285,3.2148584914393723,4.157938611533609,5.0211329864850995,8.0,0.0,4.0,5.0,6.0,2.0,1,4,2,5,0,7,0,0,0,1,0,0,2,1,3,4,5,0,0,0,1,0,0,0,0,1,0,0,0,0
121,1,3,391,0.252747204,NA,NA,1542.157,2.0,1.0,0.0,2.0425531914893615,0,1573.1195335276968,1380.83,1637.4906367041199,1651.55,5.527123840054628,3.2479469562786107,0.726619392136854,1.5346201402280713,7.15047053581111,6.335256587344702,4.0,6.0,2.0,1.0,0.0,8.0,3,6,2,5,1,0,0,1,1,0,0,0,2,3,1,0,5,4,1,0,1,0,0,0,1,0,1,0,0,0
122,1,3,396,0.23853186899999998,NA,NA,1606.489,2.0,1.0,0.0,2.0425531914893615,2,1653.5077051228654,1598.59,1652.7016229712858,1660.32,5.97210283849563,4.845178907382433,0.7645989547818317,1.8138945266509836,2.5419182990517584,7.01226195597701,8.0,0.0,1.0,4.0,6.0,7.0,5,4,1,6,3,7,0,0,1,0,0,1,2,3,4,1,0,5,1,0,0,0,0,1,1,0,0,0,0,1
123,1,3,409,0.536525148,NA,NA,1484.3855,0.0,0.0,1.0,2.0425531914893615,2,1337.4714702207414,1299.06,1252.3008739076154,1287.75,2.4438676963181933,1.5235105401225155,0.6928677952455473,3.163859189069626,4.362563601234797,4.978787471880423,7.0,0.0,6.0,4.0,8.0,3.0,3,6,7,5,1,0,0,0,0,0,0,0,2,1,0,3,4,5,0,0,0,0,0,0,0,0,0,0,0,0
124,1,3,430,0.529319265,NA,NA,1495.4505,3.0,0.0,1.0,2.0425531914893615,0,1420.9620991253644,1174.27,1418.2047440699125,1487.18,4.685302787063847,4.052816500869085,2.7668044533056673,1.1407017396813899,1.8863754872636491,5.372849275443514,1.0,7.0,8.0,6.0,4.0,0.0,4,7,8,6,0,5,0,1,1,1,0,0,3,4,2,1,0,5,1,0,1,1,0,0,1,1,1,0,0,0
125,1,3,436,0.5056874170000001,NA,NA,1615.9965,2.0,0.0,1.0,2.0425531914893615,1,1420.1761765930862,1684.13,1341.2933832709114,1225.19,4.615340074700725,1.9296504130888934,1.1995545668432896,2.9210787328174774,3.7046727431898034,5.255473476570842,1.0,0.0,2.0,7.0,4.0,6.0,3,2,0,7,4,1,0,0,0,1,1,0,2,1,3,4,0,5,0,0,1,1,0,0,0,1,0,0,1,0
126,1,3,453,0.236430335,NA,NA,1488.634,4.0,1.0,0.0,2.0425531914893615,1,1535.198667221991,1401.4,1541.808988764045,1535.12,3.7311467081308365,2.7156272513620934,1.969924424041892,0.985691913865594,6.105772128325043,5.234273492649663,2.0,1.0,5.0,4.0,6.0,8.0,2,1,5,4,0,7,1,1,1,1,0,0,3,2,1,0,5,4,1,1,1,1,0,0,1,1,1,1,0,0
127,1,3,457,0.265895616,NA,NA,1717.4865,2.0,1.0,0.0,2.0425531914893615,1,1551.3152852977926,1479.1,1548.031210986267,1539.22,8.145322566988398,7.665986713980601,6.882570032988951,0.7878222612234822,1.8349391335432301,3.8750081608577602,1.0,8.0,5.0,7.0,7.0,6.0,8,5,4,7,0,6,0,0,0,1,0,1,3,4,5,2,1,0,1,0,1,0,0,0,0,1,0,0,0,1
128,1,3,479,0.260477377,NA,NA,1494.8665,2.0,1.0,0.0,2.0425531914893615,1,1470.1345272802998,1559.25,1396.1760299625469,1473.6,2.8265724369121017,3.690467861615616,1.7882955196964758,0.8024921335036197,5.514488979206362,4.466392518866996,6.0,8.0,1.0,4.0,5.0,2.0,6,1,2,4,0,7,1,0,0,1,0,0,3,2,0,1,5,4,1,0,1,0,0,0,0,1,0,1,0,0
129,1,3,566,0.27876359,NA,NA,1291.9185,3.0,1.0,0.0,2.0425531914893615,1,1215.2057476051646,1395.59,1108.4369538077403,1134.93,5.117009736293767,3.390168254791206,4.32556961361297,0.5906733299179905,1.3965843282439891,2.614225636525589,8.0,6.0,1.0,5.0,2.0,7.0,8,3,5,6,2,7,1,0,0,0,1,1,3,4,5,1,2,0,0,1,1,0,0,1,0,0,0,1,1,1
130,1,3,581,0.48126186299999996,NA,NA,1356.042,0.0,0.0,1.0,2.0425531914893615,0,1313.0316534777176,1250.98,1410.5855181023721,1395.91,4.015263155944922,3.2236542567461584,0.6081742001715611,1.504112929735129,2.4327424159619113,5.111060649212959,3.0,1.0,4.0,0.0,8.0,7.0,5,3,1,2,0,4,0,0,0,0,0,0,2,3,4,1,0,5,0,0,0,0,0,0,0,0,0,0,0,0
131,1,3,585,0.174120155,NA,NA,1597.125,1.0,1.0,0.0,2.0425531914893615,1,1533.0199916701374,1542.03,1579.7840199750312,1537.86,5.37208807054958,4.603608111194262,2.9810568317843718,2.0451291867339023,6.331467953701576,1.1411821255405812,8.0,0.0,5.0,4.0,1.0,6.0,0,7,6,4,3,5,0,0,0,1,0,0,5,3,2,1,0,4,0,1,0,0,0,0,0,1,0,0,0,0
132,1,3,591,0.535003214,NA,NA,1592.9015,3.0,0.0,1.0,2.0425531914893615,1,1534.9695960016659,1496.69,1572.6741573033707,1514.16,4.4885364538749855,1.442049642533675,0.7866297068903805,2.568958178491812,3.3375048501875426,3.8652345181053533,1.0,2.0,8.0,6.0,7.0,3.0,2,7,8,6,0,3,0,0,1,1,0,1,2,1,3,4,5,0,1,0,1,0,1,0,1,1,0,0,0,1
133,1,3,626,0.255084701,NA,NA,1364.3055,4.0,1.0,0.0,2.0425531914893615,1,1458.7484381507704,1364.84,1449.561797752809,1441.43,3.1575212317711703,2.349074309277057,1.542840867978157,0.6777759816759499,4.573150222217009,3.6699056362504052,2.0,7.0,4.0,3.0,1.0,8.0,1,7,4,3,0,8,0,1,1,1,0,1,3,2,1,0,5,4,1,1,1,0,1,0,1,1,1,0,0,1
134,1,3,636,0.5494676270000001,NA,NA,1612.7725,3.0,0.0,1.0,2.0425531914893615,2,1690.850478967097,1615.19,1656.8938826466917,1761.13,4.020979605125831,3.285061824377408,2.4542742510056996,0.862170026945023,5.467677444130459,6.555728893599735,2.0,4.0,6.0,7.0,3.0,1.0,5,4,6,7,8,2,0,1,1,1,0,0,3,2,1,0,4,5,1,1,1,0,0,0,1,1,1,0,0,0
135,1,3,650,0.490285705,NA,NA,1163.06,4.0,0.0,1.0,2.0425531914893615,1,1138.8300708038316,1357.72,1078.03620474407,1016.59,4.548557602256551,3.900291567133536,0.7330739534791064,1.7981361598849617,2.8608329292110284,5.580044970958625,8.0,2.0,5.0,7.0,3.0,4.0,8,4,5,7,3,0,1,0,1,1,1,0,2,3,4,1,0,5,1,1,1,0,1,0,1,1,0,1,1,0
136,1,3,654,0.48980047200000004,NA,NA,1427.28,3.0,0.0,1.0,2.0425531914893615,2,1331.8404831320283,1417.81,1382.6803995006242,1318.98,5.345910034704502,1.7872007531077543,0.7216638627523935,2.707258844160606,3.5786095152889175,4.201760635556639,6.0,7.0,5.0,2.0,8.0,3.0,3,7,5,1,8,6,0,1,1,0,1,0,2,1,3,4,5,0,1,1,0,1,0,0,1,0,1,0,1,0
137,1,3,720,0.543815039,NA,NA,1269.468,4.0,0.0,1.0,2.0425531914893615,0,1211.9229487713453,1124.63,1310.4069912609239,1281.62,5.695571925736658,4.655926265189919,1.225777647774521,1.848442395177699,2.9449141392233287,6.215514496107062,6.0,1.0,7.0,8.0,4.0,0.0,2,6,7,8,4,0,0,0,1,1,1,1,2,3,4,1,0,5,1,1,1,0,0,1,1,1,0,0,1,1
138,1,3,728,0.5369408170000001,NA,NA,1644.9855,2.0,0.0,1.0,2.0425531914893615,1,1560.5885047896709,1555.01,1584.3370786516855,1628.27,4.03074697577722,3.295833586355002,0.9826411072881456,2.078454280806909,6.502605915104141,7.318419704430198,2.0,8.0,5.0,6.0,0.0,3.0,0,1,5,6,7,2,0,0,1,1,0,0,2,3,1,0,4,5,1,1,0,0,0,0,1,1,0,0,0,0
139,1,3,741,0.541443045,NA,NA,1615.186,2.0,0.0,1.0,2.0425531914893615,2,1520.0528946272386,1325.26,1522.5717852684145,1620.96,3.811787956256012,2.941498695545306,0.7474775465943821,1.4698418889056484,6.779424489186567,5.675711035219138,0.0,5.0,3.0,6.0,8.0,6.0,5,8,3,6,0,4,0,0,1,1,0,0,2,3,1,0,5,4,1,1,0,0,0,0,1,1,0,0,0,0
140,1,3,770,0.5007585920000001,NA,NA,1512.249,2.0,0.0,1.0,2.0425531914893615,1,1369.9233652644732,1234.83,1372.9063670411986,1358.09,4.706357087203287,1.8106353152888914,1.059387951352619,2.8666642718653748,3.7153213439287356,5.578301897281563,8.0,1.0,6.0,7.0,2.0,0.0,5,1,6,3,7,2,0,1,1,0,0,0,2,1,3,4,0,5,1,1,0,0,0,0,1,0,1,0,0,0
0,2,0,5,NA,NA,NA,3425.168,1.0,NA,NA,1.6619718309859155,4,2935.8279883381924,3015.07,2577.9625468164795,3038.23,4.284711515216259,8.459261516813058,7.426947389189081,3.26878880181539,6.291646519754067,5.2682964378745964,3.0,7.0,7.0,3.0,3.0,3.0,4,0,5,3,7,8,0,0,0,1,0,0,3,0,5,4,2,1,1,0,0,0,0,0,0,1,0,0,0,0
1,2,0,14,NA,NA,NA,2738.6965,2.0,NA,NA,1.6619718309859155,0,2691.3760932944606,2612.76,2823.2808988764045,2843.01,3.0339009821054788,1.6677170620787365,4.225392351623668,7.913270676433967,8.912424220998219,5.400663365613582,6.0,0.0,2.0,1.0,1.0,2.0,6,0,5,2,3,4,1,1,0,0,0,0,1,0,2,5,3,4,1,1,0,0,0,0,1,0,1,0,0,0
2,2,0,74,NA,NA,NA,2159.182,3.0,NA,NA,1.6619718309859155,1,2250.2873802582258,2045.76,2273.9912609238454,2316.72,1.61949504614131,7.6731037003410165,6.2420047166579025,5.31342257655524,4.52196393626582,3.4583021626385744,3.0,1.0,8.0,8.0,8.0,4.0,3,1,6,4,8,2,1,1,0,0,1,0,0,5,4,3,2,1,1,0,1,0,0,1,1,0,1,0,1,0
3,2,0,96,0.51681659,NA,NA,2131.0085,1.0,0.0,1.0,1.6619718309859155,2,2348.4531445231155,2238.83,2342.789013732834,2447.42,4.317440745267959,3.390151523790337,1.29403649480264,2.212887676019818,7.204587052909119,6.077086745004635,8.0,8.0,6.0,8.0,5.0,2.0,2,4,6,0,8,3,0,0,1,0,0,0,2,3,1,0,5,4,1,0,0,0,0,0,0,0,0,1,0,0
4,2,0,105,0.5384936229999999,NA,NA,2266.084,3.0,0.0,1.0,1.6619718309859155,3,1755.366097459392,1989.81,1627.4082397003745,1681.08,2.4572239226727106,8.599000789150523,7.047492735708147,1.3197175364803115,5.5600244956040115,4.424374381336747,8.0,5.0,1.0,3.0,6.0,6.0,8,0,7,3,6,5,1,0,0,1,1,0,3,0,5,4,2,1,1,1,0,1,0,0,1,1,0,0,1,0
5,2,0,121,0.27363594,NA,NA,1656.4205,4.0,1.0,0.0,1.6619718309859155,0,1628.4773011245316,1375.56,1795.6629213483145,1728.36,3.6022819799927674,2.6120271937707003,4.457451430735091,1.2765015532131656,5.361964187151898,6.3776234701654175,6.0,7.0,2.0,4.0,8.0,4.0,5,7,2,4,8,1,0,1,1,1,1,0,3,1,0,2,4,5,1,1,0,1,1,0,0,1,1,1,1,0
6,2,0,131,0.495059825,NA,NA,1648.536,2.0,0.0,1.0,1.6619718309859155,0,1520.536443148688,1768.03,1258.4194756554307,1281.22,3.2861860411558155,4.477019689997178,5.621689158984736,1.6472661399584467,6.876540383536849,7.6441828070055635,6.0,0.0,0.0,5.0,7.0,7.0,6,2,3,5,8,4,1,0,0,1,0,0,3,0,1,2,4,5,1,1,0,0,0,0,1,1,0,0,0,0
7,2,0,148,0.523373365,NA,NA,1815.6435,3.0,0.0,1.0,1.6619718309859155,1,1372.9042065805913,1556.16,1390.0474406991261,1229.24,2.689301818239983,3.9058244914995157,4.921005950562176,1.433137718215221,6.664158756153483,7.639989588227763,8.0,3.0,3.0,4.0,6.0,6.0,8,3,2,4,5,0,1,1,0,1,0,0,3,0,1,2,4,5,1,1,1,0,0,0,1,1,1,0,0,0
8,2,0,157,0.297984529,NA,NA,1734.4675,2.0,1.0,0.0,1.6619718309859155,0,1277.4377342773844,1514.16,1320.0137328339576,1165.64,1.3245088904914155,4.89963615815941,3.6989543752260943,2.7327738193544064,7.970205566934965,6.298378819741629,5.0,0.0,2.0,7.0,6.0,4.0,5,8,3,7,0,1,1,0,0,1,0,0,0,3,2,1,5,4,1,1,0,0,0,0,1,1,0,0,0,0
9,2,0,175,0.5076664710000001,NA,NA,1511.7175,3.0,0.0,1.0,1.6619718309859155,0,1342.0,1059.12,1595.7852684144818,1533.94,3.224343191635853,4.589985140701174,5.590389409413547,1.3023539386831544,8.326358605165296,9.253715965021911,8.0,6.0,6.0,1.0,5.0,5.0,8,3,0,1,5,4,1,0,0,1,1,0,3,0,1,2,4,5,1,1,0,0,1,0,1,1,0,0,1,0
10,2,0,182,0.607233464,NA,NA,1288.832,1.0,0.0,1.0,1.6619718309859155,0,1305.3440233236151,1538.77,1048.4132334581773,1169.83,1.2270630248658563,2.4993237479648087,5.85140188301375,6.850655211816047,8.689390198565889,9.833476927604352,6.0,1.0,5.0,3.0,7.0,7.0,1,8,6,0,4,7,0,0,0,0,0,1,0,1,2,3,4,5,0,0,0,0,0,1,0,0,0,0,0,1
11,2,0,215,0.29234957100000003,NA,NA,1245.551,2.0,1.0,0.0,1.6619718309859155,1,1252.7238650562265,968.53,1427.7852684144818,1327.3,2.1682068601385254,3.038273242314972,3.893522520447732,1.3033041697271983,4.918615690416118,5.757514323315263,7.0,6.0,6.0,1.0,3.0,3.0,7,3,2,1,0,8,1,0,0,1,0,0,3,0,1,2,4,5,1,1,0,0,0,0,1,1,0,0,0,0
12,2,0,229,0.57227857,NA,NA,1257.7905,0.0,0.0,1.0,1.6619718309859155,0,1270.9466888796335,1549.51,994.4831460674158,1148.55,2.0599326941064646,2.921192404537578,3.881781051715734,4.8660790040285065,5.801309055163074,6.809310040462151,8.0,8.0,4.0,2.0,4.0,6.0,0,7,8,6,2,5,0,0,0,0,0,0,0,1,2,3,4,5,0,0,0,0,0,0,0,0,0,0,0,0
13,2,0,242,0.301750387,NA,NA,1519.8935,2.0,1.0,0.0,1.6619718309859155,0,1141.155768429821,1123.81,1361.0686641697878,1184.44,2.0059300347129465,2.7897494788412587,4.870734936572262,1.1264177914727043,6.534054364734402,8.373710217449116,5.0,6.0,2.0,3.0,7.0,1.0,5,2,0,3,4,6,1,0,0,1,0,0,3,0,1,2,4,5,1,1,0,0,0,0,1,1,0,0,0,0
14,2,0,310,0.565711627,NA,NA,1081.2205,3.0,0.0,1.0,1.6619718309859155,0,1456.441899208663,1413.34,1386.4232209737827,1541.21,2.602299085861887,10.399280356075906,5.663759049004511,4.0658764135150705,6.447990174388906,7.535372942164031,6.0,8.0,2.0,5.0,1.0,0.0,6,3,2,5,0,8,1,0,1,1,0,0,0,3,2,4,5,1,1,1,1,0,0,0,1,1,0,1,0,0
15,2,0,316,0.5967072720000001,NA,NA,1515.5275,1.0,0.0,1.0,1.6619718309859155,2,2015.5568513119533,1821.62,2041.8988764044943,2058.4,1.8174860758226714,4.7518243409685965,5.4471608248222765,0.9453652787342435,2.712362810927516,3.663200827468245,5.0,7.0,7.0,6.0,7.0,7.0,5,8,0,7,1,2,1,0,0,0,0,0,3,0,4,5,1,2,0,1,0,0,0,0,1,0,0,0,0,0
16,2,0,361,0.5719370229999999,NA,NA,1268.703,3.0,0.0,1.0,1.6619718309859155,1,1078.1232819658476,1483.94,901.1198501872659,920.56,2.7256298381089437,4.339981149330924,5.38049811151177,1.0864410896665504,6.556419718734105,7.284226278719871,0.0,8.0,7.0,5.0,8.0,8.0,0,2,4,5,8,6,1,0,0,1,1,0,3,0,1,2,4,5,1,1,0,0,1,0,1,1,0,0,1,0
17,2,0,391,0.5987996999999999,NA,NA,1078.541,0.0,0.0,1.0,1.6619718309859155,0,1600.4835485214494,1225.4,1649.685393258427,1751.49,2.65909541882138,4.964965468952869,3.843646937137237,1.5812152465769032,6.907235155527815,5.915825152927937,1.0,3.0,1.0,6.0,5.0,4.0,8,2,6,1,4,0,0,0,0,0,0,0,3,0,2,1,5,4,0,0,0,0,0,0,0,0,0,0,0,0
18,2,0,404,0.569921191,NA,NA,1625.715,3.0,0.0,1.0,1.6619718309859155,1,1475.3669304456475,1197.47,1641.4981273408239,1571.67,2.1832010099315085,4.838015970040942,3.7026098995102075,1.2379292432833608,6.836993039052686,5.789323542694547,3.0,0.0,7.0,6.0,5.0,1.0,3,4,7,6,8,2,1,0,1,1,0,0,3,0,2,1,5,4,1,1,1,0,0,0,1,1,0,1,0,0
19,2,0,409,0.54594627,NA,NA,1630.612,1.0,0.0,1.0,1.6619718309859155,2,1389.1274468971262,1088.5,1744.9750312109863,1519.38,14.139219824104657,12.796558755238948,12.195291723495757,11.413001829187124,10.334010345628485,16.93132050469103,2.0,0.0,7.0,2.0,8.0,4.0,7,0,6,1,3,5,0,1,0,0,0,0,4,3,2,1,0,5,0,0,0,1,0,0,0,0,1,0,0,0
20,2,0,421,0.218750143,NA,NA,1938.8895,2.0,1.0,0.0,1.6619718309859155,0,1954.9412744689712,2037.32,2012.2821473158551,1980.55,3.126323424094153,2.1733976361974783,1.0544705049196637,4.309744244445028,5.901095859011548,6.788842012470923,2.0,1.0,8.0,6.0,0.0,4.0,2,7,8,1,4,6,1,0,1,0,0,0,2,1,0,3,4,5,1,0,1,0,0,0,1,0,0,1,0,0
