,subject_num,block_num,trial_num,rt_trail,s_bl,s_pretrial,s_ret,wm_perf,triggered_low,triggered_high,s_trail_online,wm_perf_subjmean,arf,s_preret,s_preret_bl,s_prevstim,s_prevstim_bl,probes_perloc_rts0,probes_perloc_rts1,probes_perloc_rts2,probes_perloc_rts3,probes_perloc_rts4,probes_perloc_rts5,probes_perloc_respind0,probes_perloc_respind1,probes_perloc_respind2,probes_perloc_respind3,probes_perloc_respind4,probes_perloc_respind5,probes_perloc_colorind0,probes_perloc_colorind1,probes_perloc_colorind2,probes_perloc_colorind3,probes_perloc_colorind4,probes_perloc_colorind5,probes_perloc_resporder0,probes_perloc_resporder1,probes_perloc_resporder2,probes_perloc_resporder3,probes_perloc_resporder4,probes_perloc_resporder5,probes_perresporder_acc0,probes_perresporder_acc1,probes_perresporder_acc2,probes_perresporder_acc3,probes_perresporder_acc4,probes_perresporder_acc5,probes_sortedbylocacc_acc0,probes_sortedbylocacc_acc1,probes_sortedbylocacc_acc2,probes_sortedbylocacc_acc3,probes_sortedbylocacc_acc4,probes_sortedbylocacc_acc5
0,0,0,7,0.31193468500000004,NA,NA,3084.429,1,NA,NA,NA,1.487603305785124,1,2764.134943773428,2805.15,3048.28875,2984.28,2.3934158752672374,4.065397065598518,5.385576232802123,1.3388117887079716,6.880349519662559,6.209024626296014,4.0,2.0,3.0,1.0,8.0,0.0,6,3,1,5,2,0,3,0,1,2,5,4,0,0,0,0,1,0,0,1,0,0,0,0
1,0,0,9,0.3623824605,NA,NA,3277.038,0,NA,NA,NA,1.487603305785124,2,NA,NA,3159.4325,3133.27,5.293510186020285,3.9036962469108403,2.649297032505274,1.7421850189566612,6.877533885650337,5.91883213352412,5.0,4.0,1.0,5.0,8.0,4.0,7,2,4,3,6,8,3,2,1,0,5,4,0,0,0,0,0,0,0,0,0,0,0,0
2,0,0,14,0.23731078233333336,NA,NA,3211.3175,1,NA,NA,NA,1.487603305785124,0,2995.9441899208664,2832.68,3087.89,3062.12,2.6636072732508183,3.745531791355461,4.304593109991401,1.1355966171249747,5.136953686829656,5.99145644903183,3.0,2.0,8.0,0.0,3.0,4.0,6,8,1,0,4,2,3,0,1,2,4,5,1,0,0,0,0,0,0,0,0,1,0,0
3,0,0,28,0.35151046166666666,NA,NA,2957.2735,1,NA,NA,NA,1.487603305785124,2,2678.4885464389836,3133.71,2843.2525,2653.26,1.022984366863966,2.189413831103593,3.322524958755821,4.466672824695706,6.194699845276773,7.434518830385059,1.0,4.0,5.0,0.0,3.0,8.0,1,5,8,2,7,3,0,1,2,3,4,5,1,0,0,0,0,0,1,0,0,0,0,0
4,0,0,87,0.216344914,NA,NA,1721.516,2,1.0,0.0,1690.979899,1.487603305785124,0,1639.8029987505206,1780.69,1718.90125,1659.81,6.387230660300702,7.54029555618763,8.394830819685012,1.9821476936340332,3.622023071628064,4.988385937176645,3.0,8.0,5.0,5.0,5.0,0.0,3,8,0,6,2,1,3,4,5,0,1,2,0,0,0,1,1,0,1,0,1,0,0,0
5,0,0,121,0.10139390433333333,NA,NA,1611.6165,2,1.0,0.0,1380.855967,1.487603305785124,0,1343.354019158684,1564.9,1341.19,1266.73,1.6120240921154618,8.123017495498061,7.04283607006073,5.651743463706225,4.874986529350281,3.4237284176051617,2.0,4.0,3.0,0.0,6.0,4.0,2,6,3,8,7,0,0,5,4,3,2,1,1,0,0,0,1,0,1,0,0,0,1,0
6,0,0,146,0.320874523,NA,NA,1100.1065,3,1.0,0.0,1157.16067,1.487603305785124,0,1140.0387338608914,1045.3,1285.01625,1315.57,6.068227524403483,7.747626981232315,8.875465209595859,1.8615937354043126,4.030385527294129,5.283559388015419,7.0,8.0,3.0,0.0,5.0,2.0,6,8,3,0,2,7,3,4,5,0,1,2,1,0,0,0,1,1,0,0,1,1,1,0
7,0,0,165,0.301838772,NA,NA,1261.3755,3,1.0,0.0,1290.0431230000002,1.487603305785124,0,1311.5326947105373,1000.94,1721.4875,1646.48,1.233084955252707,7.387956806458533,5.621395283844322,4.741907332558185,3.6446983912028372,2.6444868477992713,5.0,6.0,8.0,6.0,4.0,0.0,5,4,8,1,3,0,0,5,4,3,2,1,1,1,0,0,1,0,1,1,0,0,1,0
8,0,0,182,0.27104488833333334,NA,NA,983.7485,1,1.0,0.0,1174.9103910000001,1.487603305785124,0,1210.6318200749688,1045.47,1169.34125,1317.4,1.1602872996591032,7.975424782838672,6.072216339875013,4.561740675475448,3.6636910922825336,2.3696352280676365,0.0,3.0,1.0,7.0,8.0,1.0,0,2,4,5,7,3,0,5,4,3,2,1,1,0,0,0,0,0,1,0,0,0,0,0
9,0,0,192,0.500932748,NA,NA,1232.4515,2,1.0,0.0,1144.922711,1.487603305785124,0,1083.0,1164.13,1297.065,1243.63,1.8127919766120613,8.82855279929936,6.525167366955429,5.740006294567138,4.17254739580676,3.3668004916980863,0.0,5.0,6.0,3.0,6.0,1.0,0,5,3,1,4,2,0,5,4,3,2,1,1,0,0,0,0,1,1,0,1,0,0,0
10,0,0,250,0.258912706,NA,NA,1160.3085,0,1.0,0.0,1221.4560800000002,1.487603305785124,0,1250.5097875885049,1075.79,1322.67625,1361.47,2.24585994053632,3.5588215505704284,5.7196129048243165,7.198263863567263,8.215126877650619,9.73374638427049,1.0,4.0,1.0,3.0,6.0,3.0,5,3,6,8,4,1,0,1,2,3,4,5,0,0,0,0,0,0,0,0,0,0,0,0
11,0,0,260,0.258625422,NA,NA,2123.469,1,0.0,1.0,2173.109194,1.487603305785124,0,2143.4281549354437,2419.74,1897.19,1948.66,3.7046452262438834,16.139120721723884,21.987221308983862,20.81141209928319,17.70218653557822,23.403287415392697,5.0,6.0,0.0,8.0,2.0,6.0,5,7,2,1,0,3,0,1,4,3,2,5,1,0,0,0,0,0,1,0,0,0,0,0
12,0,0,264,0.23735459233333334,NA,NA,2618.539,3,0.0,1.0,2520.597358,1.487603305785124,0,2528.386922115785,2502.48,2560.55,2544.19,2.1200901023112237,6.398236037697643,8.32544893026352,9.46056458633393,10.763475614599884,4.764782791957259,5.0,8.0,3.0,1.0,0.0,7.0,5,0,3,2,4,7,0,5,1,2,3,4,1,1,0,1,0,0,1,1,0,0,1,0
13,0,0,268,0.3052444653333333,NA,NA,2024.487,2,0.0,1.0,1987.2952670000002,1.487603305785124,0,1915.6155768429821,2137.99,2094.23375,1977.77,1.5145591320469975,4.5535184307955205,6.137822382617742,7.729975955095142,9.592474308330566,2.898014231119305,6.0,2.0,1.0,3.0,0.0,8.0,6,3,4,2,5,8,0,5,1,2,3,4,1,1,0,0,0,0,1,1,0,0,0,0
14,0,0,272,0.09413557833333334,NA,NA,1627.67,1,0.0,1.0,2029.880225,1.487603305785124,0,2042.2611411911703,2163.06,1501.11875,1559.38,1.48422093084082,8.042740846984088,6.931655869819224,5.611823097337037,4.154920602682978,2.5907027050852776,4.0,3.0,3.0,2.0,6.0,8.0,4,0,2,8,7,1,0,5,4,3,2,1,1,0,0,0,0,0,1,0,0,0,0,0
15,0,0,302,0.19935740700000001,NA,NA,1266.3855,1,1.0,0.0,1336.8477890000001,1.487603305785124,0,1379.0991253644315,1163.55,1378.7075,1547.75,1.7825860613957047,8.092035256326199,5.19711634144187,4.485708005260676,3.829669530969113,2.844063590746373,7.0,3.0,7.0,4.0,3.0,6.0,7,4,5,8,6,3,0,5,4,3,2,1,1,0,0,0,0,0,1,0,0,0,0,0
16,0,0,307,0.3918074436666667,NA,NA,1617.2955,2,0.0,1.0,2074.604289,1.487603305785124,0,2123.9708454810498,2178.29,1422.76125,1570.44,0.8397095641121268,6.447590032592416,4.856670367065817,4.186053088866174,3.536818207707256,2.025622099172324,3.0,1.0,4.0,8.0,2.0,0.0,3,2,7,1,6,0,0,5,4,3,2,1,1,1,0,0,0,0,1,1,0,0,0,0
17,0,0,311,0.339888511,NA,NA,1441.7985,1,0.0,1.0,1927.97431,1.487603305785124,0,1957.036651395252,2168.84,1259.43375,1385.57,2.7536990121006966,9.805320396553725,8.206718178465962,7.181310188025236,5.637560376897454,4.614787552971393,2.0,2.0,3.0,6.0,2.0,4.0,2,8,7,4,3,1,0,5,4,3,2,1,1,0,0,0,0,0,1,0,0,0,0,0
18,0,0,331,0.6461503033333333,NA,NA,2092.5165,4,0.0,1.0,1960.702234,1.487603305785124,0,1994.338192419825,2096.78,1839.94,1878.25,3.9606820470653474,1.8103292942978442,11.727220476139337,9.991304491646588,7.1120831072330475,5.8401409182697535,7.0,1.0,8.0,6.0,5.0,2.0,7,1,8,6,3,4,1,0,5,4,3,2,1,1,0,0,1,1,1,0,1,1,1,0
19,0,0,335,0.31492822066666665,NA,NA,1770.145,0,0.0,1.0,1833.211284,1.487603305785124,0,1814.5618492294877,2142.36,1447.14375,1437.24,3.2034392589703202,6.451539789326489,8.772894133348018,9.819990147370845,10.898727262858301,4.962414591573179,7.0,3.0,5.0,2.0,2.0,8.0,8,7,2,5,0,3,0,5,1,2,3,4,0,0,0,0,0,0,0,0,0,0,0,0
20,0,0,340,0.31966161833333334,NA,NA,2260.739,2,0.0,1.0,2163.498675,1.487603305785124,0,2189.9037900874637,1946.23,2380.6875,2374.71,1.802017814014107,3.670386063400656,5.181759218219668,6.174728401005268,7.253762304317206,2.760880646761507,5.0,2.0,8.0,2.0,0.0,1.0,5,2,7,0,1,3,0,5,1,2,3,4,1,0,1,0,0,0,1,0,1,0,0,0
21,0,0,344,0.3653475343333333,NA,NA,2284.0365,1,0.0,1.0,2263.637216,1.487603305785124,0,2246.9500208246563,2218.72,2439.78375,2428.57,2.0702631287276745,5.200055137742311,6.701635439880192,8.309762518387288,9.653798739425838,3.67036240035668,2.0,6.0,5.0,0.0,6.0,4.0,0,2,6,7,3,4,0,5,1,2,3,4,0,1,0,0,0,0,0,1,0,0,0,0
22,0,0,348,0.4428747866666667,NA,NA,2320.695,1,0.0,1.0,2253.984586,1.487603305785124,0,2273.184089962516,2034.84,2374.63125,2410.7,1.958437465596944,7.885562547948211,9.822675491217524,11.062098759226501,5.509715021122247,3.9927724646404386,8.0,2.0,3.0,1.0,6.0,0.0,8,1,6,0,3,4,0,5,4,1,2,3,1,0,0,0,0,0,1,0,0,0,0,0
23,0,0,352,0.42171277,NA,NA,2425.7655,2,0.0,1.0,2565.44616,1.487603305785124,0,2549.397334443982,2659.4,2549.97375,2575.43,3.7413961510173976,0.7500243759714067,4.989225837402046,6.733652587048709,8.181207267567515,10.021473059430718,2.0,7.0,2.0,5.0,3.0,6.0,2,0,3,5,8,4,1,0,2,3,4,5,0,1,0,1,0,0,1,0,0,1,0,0
24,0,0,356,0.36920577400000004,NA,NA,2512.144,2,0.0,1.0,2246.098409,1.487603305785124,0,2272.1682632236566,2003.08,2445.77625,2440.65,3.8345107906498015,2.376384652685374,9.103422951418906,7.366804768331349,5.865545772947371,5.151706971228123,8.0,3.0,7.0,5.0,3.0,1.0,6,8,7,5,4,3,1,0,5,4,3,2,0,0,0,0,1,1,0,0,0,1,1,0
25,0,0,360,0.426057578,NA,NA,2949.39,1,0.0,1.0,2957.896272,1.487603305785124,0,2991.601416076635,2847.61,2938.9075,2972.65,3.6167621463537216,13.060316322837025,8.660720649641007,7.533465162850916,6.685503133572638,5.022036414127797,2.0,0.0,5.0,2.0,5.0,6.0,6,7,0,3,5,2,0,5,4,3,2,1,0,0,1,0,0,0,0,0,0,0,0,1
26,0,0,364,0.2866566993333333,NA,NA,2977.649,2,0.0,1.0,2918.492695,1.487603305785124,0,2917.5985006247397,2887.21,2947.58375,2894.21,1.7580499025061727,5.772367270663381,7.556795354466885,8.396571632009,4.342664041556418,2.9174981568939984,6.0,6.0,5.0,5.0,8.0,0.0,6,5,4,7,2,0,0,5,4,1,2,3,1,1,0,0,0,0,1,1,0,0,0,0
27,0,0,368,0.286258702,NA,NA,2855.6545,2,0.0,1.0,2686.728395,1.487603305785124,0,2678.7913369429402,2739.25,2749.30125,2676.04,1.2988888565450907,9.981918474193662,4.4949067127890885,6.6944312821142375,7.919181379023939,2.7774480134248734,4.0,5.0,6.0,6.0,4.0,7.0,4,2,8,6,7,5,0,5,2,3,4,1,1,0,0,1,0,0,1,0,0,1,0,0
28,0,0,372,0.36721226966666665,NA,NA,3063.01,2,0.0,1.0,2751.4301179999998,1.487603305785124,0,2757.186172428155,2606.8,2975.14875,2880.05,1.6915038893930614,9.840650389436632,8.016668006312102,6.626456354744732,4.601967522408813,2.8997912504710257,3.0,3.0,7.0,6.0,2.0,4.0,3,2,7,5,8,6,0,5,4,3,2,1,1,0,0,0,1,0,1,0,0,0,1,0
29,0,0,376,0.3364840533333333,NA,NA,2822.7235,2,0.0,1.0,2613.043512,1.487603305785124,0,2621.160349854227,2499.64,2717.32125,2690.66,1.9163848469033837,10.908067379146814,9.196866310201585,7.028328255750239,5.326912057120353,3.3750187451951206,3.0,6.0,8.0,4.0,1.0,7.0,3,2,0,1,5,7,0,5,4,3,2,1,1,1,0,0,0,0,1,1,0,0,0,0
30,0,0,380,0.24883865100000002,NA,NA,3326.581,3,0.0,1.0,3223.340461,1.487603305785124,0,3228.883798417326,3217.4,3272.075,3249.41,2.4930319041013718,10.488176674582064,9.433558618184179,7.761266955640167,5.640376295894384,3.977307858876884,4.0,0.0,7.0,4.0,6.0,2.0,4,8,7,1,5,2,0,5,4,3,2,1,1,1,0,0,1,0,1,1,0,0,1,0
31,0,0,384,0.4070484366666666,NA,NA,2988.0615,2,0.0,1.0,3045.47651,1.487603305785124,0,3056.5664306538943,3027.31,2963.39375,2981.86,2.1282621696591377,8.807578377891332,7.312142236623913,6.633388243149966,5.207465706858784,3.281390072312206,5.0,0.0,7.0,5.0,5.0,4.0,5,3,6,7,1,4,0,5,4,3,2,1,1,1,0,0,0,0,1,1,0,0,0,0
32,0,0,388,0.18754567533333333,NA,NA,2433.738,3,0.0,1.0,2489.081182,1.487603305785124,0,2481.038733860891,2594.19,2492.785,2477.05,2.8043656013906,7.370188319124281,9.072805923875421,12.841362281236798,5.939318181015551,4.472757115028799,5.0,3.0,3.0,3.0,0.0,7.0,5,2,4,6,0,7,0,5,4,1,2,3,1,1,1,0,0,0,1,1,0,0,0,1
33,0,0,392,0.4274774643333334,NA,NA,2645.495,3,0.0,1.0,2458.937837,1.487603305785124,0,2439.494793835902,2415.88,2484.7875,2422.23,4.017357660457492,1.9987113545648754,8.809644773136824,8.187075167428702,7.060075984802097,5.634635549969971,0.0,1.0,3.0,6.0,2.0,3.0,0,7,8,1,2,3,1,0,5,4,3,2,0,1,1,1,0,0,1,1,0,0,0,1
34,0,0,396,0.330904483,NA,NA,2548.4475,0,0.0,1.0,2707.094372,1.487603305785124,0,2712.5068721366097,2725.84,2602.9125,2687.33,1.8158009075559676,13.634022587910295,8.96382554480806,7.1782194334082305,4.81388475978747,2.901750163640827,8.0,7.0,2.0,3.0,0.0,1.0,7,2,0,4,6,5,0,5,4,3,2,1,0,0,0,0,0,0,0,0,0,0,0,0
35,0,0,400,0.32549065,NA,NA,3195.1415,1,0.0,1.0,3002.50283,1.487603305785124,0,2980.2124114952103,3022.16,3072.21375,3034.39,1.3495394801720977,11.098818323109299,9.548016312066466,7.413202005438507,4.180992872919887,2.7727681193500757,4.0,0.0,3.0,5.0,0.0,4.0,4,6,7,1,8,0,0,5,4,3,2,1,1,0,0,0,0,0,1,0,0,0,0,0
36,0,0,404,0.29932011599999997,NA,NA,2474.745,1,0.0,1.0,2609.648262,1.487603305785124,0,2593.853394418992,2707.45,2522.0625,2593.67,2.1978293731808662,15.55275693256408,13.985213359352201,13.354641035199165,12.1318966075778,4.147975885309279,0.0,6.0,3.0,1.0,8.0,2.0,0,2,4,8,5,3,0,5,4,3,2,1,1,0,0,0,0,0,1,0,0,0,0,0
37,0,0,408,0.31958530700000004,NA,NA,3084.047,1,0.0,1.0,3184.92176,1.487603305785124,0,3195.5326947105373,3179.7,3065.81625,3045.7,2.0457275402732193,9.829723129514605,8.181319881230593,6.143260353710502,5.120634356047958,3.512706845998764,2.0,7.0,2.0,3.0,8.0,0.0,2,3,0,8,5,4,0,5,4,3,2,1,1,0,0,0,0,0,1,0,0,0,0,0
38,0,0,412,0.289293957,NA,NA,2588.3995,2,0.0,1.0,2721.984341,1.487603305785124,0,2692.7934194085797,2828.77,2667.35625,2632.21,0.8318109065294266,3.215889516286552,3.9043511184863746,4.99167654523626,6.127330752555281,2.120710192248225,3.0,1.0,8.0,5.0,4.0,1.0,3,4,2,7,6,1,0,5,1,2,3,4,1,1,0,0,0,0,1,1,0,0,0,0
39,0,0,429,0.24342814366666668,NA,NA,2466.592,2,0.0,1.0,2518.44775,1.487603305785124,0,2574.7446897126197,2774.92,2022.23125,2080.65,1.2918617455288768,9.031226283404976,7.319272553548217,5.966614664532244,4.304017210844904,2.7847456834279,4.0,6.0,3.0,1.0,5.0,7.0,4,5,0,8,1,7,0,5,4,3,2,1,1,1,0,0,0,0,1,1,0,0,0,0
40,0,0,433,0.3402533423333334,NA,NA,2510.481,2,0.0,1.0,2591.6816870000002,1.487603305785124,0,2592.725531028738,2469.98,2673.17375,2645.85,1.1158133377321064,14.086182181257755,10.470072626136243,9.392348180525005,4.840137782506645,3.225991131272167,5.0,6.0,0.0,4.0,7.0,6.0,5,7,8,0,2,6,0,5,4,3,2,1,1,1,0,0,0,0,1,1,0,0,0,0
41,0,0,437,0.27702036566666666,NA,NA,2874.8785,3,0.0,1.0,2644.383731,1.487603305785124,0,2656.862557267805,2595.82,2787.8525,2747.29,0.9973026816733181,3.2616928927600384,4.188938572071493,5.302160648629069,14.26100780069828,2.240937712136656,2.0,4.0,8.0,1.0,4.0,1.0,2,8,7,0,4,1,0,5,1,2,3,4,1,1,0,0,0,1,1,1,0,0,0,1
42,0,0,551,0.23141380199999997,NA,NA,1361.0635,3,1.0,0.0,1433.99774,1.487603305785124,0,1451.6139108704706,1311.85,1670.88125,1679.93,4.523147443309426,2.3099481179378927,5.388872543349862,7.425866942387074,6.803112022578716,6.073902127798647,3.0,1.0,5.0,7.0,6.0,2.0,3,1,5,2,0,6,1,0,2,5,4,3,1,1,1,0,0,0,1,0,1,0,1,0
43,0,0,592,0.37827143533333335,NA,NA,1315.5765,1,1.0,0.0,1248.485154,1.487603305785124,0,1220.597667638484,1193.9,1501.72125,1401.56,1.7952604060992599,11.521957726683468,9.466168770100921,6.882396242581308,4.996255514211953,3.2845210256054997,2.0,0.0,4.0,8.0,6.0,5.0,2,4,8,3,1,6,0,5,4,3,2,1,1,0,0,0,0,0,1,0,0,0,0,0
44,0,0,598,0.20311557700000002,NA,NA,1390.736,2,1.0,0.0,1246.804714,1.487603305785124,0,1226.6634735526864,1148.68,1577.7075,1452.17,1.5843817833811045,13.136655188631266,15.29632211336866,16.169064060784876,16.991461295634508,4.786415506154299,0.0,3.0,2.0,3.0,4.0,1.0,0,7,3,5,6,1,0,5,1,2,3,4,1,1,0,0,0,0,1,1,0,0,0,0
45,0,0,670,0.2633460846666667,NA,NA,1472.583,2,1.0,0.0,1213.890591,1.487603305785124,0,1154.3890045814244,1598.33,1122.4725,995.66,4.347609077580273,8.386719478294253,9.545804231893271,11.937231258954853,12.785209538880736,5.841885722242296,6.0,4.0,3.0,1.0,0.0,5.0,6,7,4,8,2,5,0,5,1,2,3,4,1,1,0,0,0,0,1,1,0,0,0,0
46,0,0,715,0.290668608,NA,NA,1532.3205,2,1.0,0.0,1238.962325,1.487603305785124,0,1215.0020824656392,1208.47,1592.5225,1458.33,1.0735226618126035,39.319840755313635,5.617923352867365,4.650904418434948,3.5226570735685527,2.122235754970461,8.0,7.0,3.0,6.0,2.0,7.0,8,5,0,2,4,7,0,5,4,3,2,1,1,1,0,0,0,0,1,1,0,0,0,0
47,0,1,11,0.34595103866666665,NA,NA,2088.1335,0,NA,NA,NA,1.487603305785124,0,2336.1245314452312,2296.42,2221.53125,2302.5,3.1058793612755835,1.4197812266647816,7.575710793491453,6.288470782339573,5.049953272100538,4.17757482547313,0.0,4.0,6.0,8.0,4.0,4.0,5,0,8,4,1,7,1,0,5,4,3,2,0,0,0,0,0,0,0,0,0,0,0,0
48,0,1,39,0.36720609233333334,NA,NA,1358.7355,1,NA,NA,NA,1.487603305785124,0,1325.2240733027904,1350.34,1517.7675,1411.95,1.7132366732694209,24.847183709964156,8.256171102169901,6.7693956876173615,4.920340305194259,3.367881015408784,7.0,1.0,4.0,6.0,2.0,0.0,7,6,2,3,5,8,0,5,4,3,2,1,1,0,0,0,0,0,1,0,0,0,0,0
49,0,1,64,0.3530653896666667,NA,NA,2911.38,2,NA,NA,NA,1.487603305785124,0,2844.017909204498,2795.76,2860.52625,2826.54,2.7195855351164937,9.500368917826563,8.27731002587825,7.022633695509285,5.557264911942184,4.080542645417154,7.0,0.0,6.0,1.0,8.0,4.0,7,0,4,2,5,6,0,5,4,3,2,1,1,0,0,0,0,1,1,0,1,0,0,0
50,0,1,71,0.2421528026666667,NA,NA,3059.0325,1,NA,NA,NA,1.487603305785124,0,2831.9983340274885,2828.54,2906.9575,2811.74,11.191653851885349,9.921784615144134,16.71090884320438,15.368734030984342,14.049232828430831,12.305365442298353,7.0,1.0,7.0,8.0,5.0,8.0,2,1,8,6,4,7,1,0,5,4,3,2,1,0,0,0,0,0,0,0,1,0,0,0
51,0,1,87,0.3621738163333333,NA,NA,3567.1135,2,0.0,1.0,3415.2876990000004,1.487603305785124,0,3430.7609329446063,3283.83,3534.96625,3525.84,2.7393206330016255,5.835897795855999,7.554906005971134,8.626982932444662,11.241928715258837,4.011760318651795,0.0,8.0,6.0,1.0,0.0,4.0,0,3,7,6,5,4,0,5,1,2,3,4,1,1,0,0,0,0,1,1,0,0,0,0
52,0,1,92,0.30394403566666667,NA,NA,3209.6595,3,1.0,0.0,2975.467132,1.487603305785124,0,2921.0403998334027,3121.28,3065.4,2944.66,3.633143628947437,12.909033293370157,9.75064560584724,8.717954200692475,7.311212530359626,5.09482808271423,1.0,4.0,6.0,1.0,3.0,8.0,1,4,2,5,7,8,0,5,4,3,2,1,1,1,0,0,0,1,1,1,1,0,0,0
53,0,1,96,0.3464358013333333,NA,NA,3077.628,3,1.0,0.0,2867.130241,1.487603305785124,0,2882.6172428154937,2764.24,2980.24,2990.53,2.724846745375544,11.627029973547906,10.674789126962423,9.620119467843324,8.205304659437388,4.2696511363610625,3.0,3.0,1.0,3.0,5.0,8.0,3,7,1,0,2,8,0,5,4,3,2,1,1,1,0,0,1,0,1,1,0,0,1,0
54,0,1,100,0.3261392493333333,NA,NA,2563.643,1,1.0,0.0,2597.1472129999997,1.487603305785124,0,2601.0999583506873,2571.61,2617.49625,2597.36,2.252099609002471,10.58785399980843,9.66905579296872,8.708225779701024,6.293708899524063,3.7170170811004937,2.0,1.0,3.0,5.0,3.0,5.0,2,5,1,0,4,3,0,5,4,3,2,1,1,0,0,0,0,0,1,0,0,0,0,0
55,0,1,112,0.3431952753333333,NA,NA,2758.5515,2,1.0,0.0,2738.7580399999997,1.487603305785124,0,2743.937109537693,2649.25,2827.895,2822.83,4.0463068606331944,2.215567069593817,11.866813036147505,10.427160434424877,7.732623950578272,6.059257180895656,6.0,7.0,6.0,5.0,2.0,8.0,6,7,1,2,5,0,1,0,5,4,3,2,1,1,0,0,0,0,1,0,1,0,0,0
56,0,1,124,0.2826469773333333,NA,NA,2614.35,0,1.0,0.0,2731.209877,1.487603305785124,0,2698.285714285714,2670.0,2836.31625,2919.08,5.003280344884843,16.749903208576143,13.646922730840743,11.869989320170134,10.006215434987098,8.35380626609549,2.0,0.0,4.0,3.0,2.0,5.0,5,1,6,0,7,3,0,5,4,3,2,1,0,0,0,0,0,0,0,0,0,0,0,0
57,0,1,141,0.461663452,NA,NA,3329.528,2,0.0,1.0,3360.314962,1.487603305785124,0,3379.1045397750936,3300.23,3261.8425,3320.42,5.879175483249128,28.97121501620859,14.731157403439283,11.589781266637146,9.332198925781995,7.491006563883275,7.0,5.0,7.0,0.0,2.0,0.0,7,8,2,6,4,0,0,5,4,3,2,1,1,1,0,0,0,0,1,1,0,0,0,0
58,0,1,148,0.08375371133333333,NA,NA,3735.3645,2,0.0,1.0,3589.299774,1.487603305785124,0,3590.971678467305,3574.11,3718.615,3687.05,2.967064265627414,21.514159994199872,17.617449804209173,14.61189494235441,13.346925981342793,7.945707241538912,7.0,3.0,7.0,6.0,7.0,2.0,7,2,0,6,4,8,0,5,4,3,2,1,1,0,0,1,0,0,1,0,0,1,0,0
59,0,1,155,0.1409752883333333,NA,NA,3781.0895,0,0.0,1.0,3787.7141979999997,1.487603305785124,0,3792.723448563099,3765.62,3794.6,3808.96,13.623507294803858,14.80419169133529,15.602794593665749,17.203849230892956,20.21802547527477,21.218027756083757,2.0,7.0,4.0,5.0,1.0,3.0,5,0,3,8,6,2,0,1,2,3,4,5,0,0,0,0,0,0,0,0,0,0,0,0
60,0,1,165,0.20376797766666668,NA,NA,3721.226,1,0.0,1.0,3822.6244340000003,1.487603305785124,0,3826.0070803831736,3824.55,3772.3425,3811.84,3.4012888739816844,11.222583917435259,10.29561906028539,8.526271839160472,7.462765547912568,4.778749489225447,0.0,3.0,6.0,8.0,2.0,4.0,0,4,8,3,6,2,0,5,4,3,2,1,1,0,0,0,0,0,1,0,0,0,0,0
61,0,1,206,0.3366312593333333,NA,NA,2855.5895,0,1.0,0.0,2745.165548,1.487603305785124,0,2748.8034152436485,2769.06,2763.05,2685.53,2.3675391827709973,8.10228683333844,7.445349157322198,6.605520992074162,5.2244903719983995,3.7819899199530482,2.0,0.0,4.0,5.0,1.0,5.0,1,6,7,2,0,3,0,5,4,3,2,1,0,0,0,0,0,0,0,0,0,0,0,0
62,0,1,222,0.41303645866666666,NA,NA,2648.559,0,1.0,0.0,2566.385859,1.487603305785124,0,2537.5460224906287,2660.09,2598.6225,2511.26,2.040808448102325,8.151909675914794,7.208152794279158,6.248188340570778,5.163388602435589,4.059881262015551,2.0,6.0,7.0,5.0,5.0,2.0,7,8,0,3,1,6,0,5,4,3,2,1,0,0,0,0,0,0,0,0,0,0,0,0
63,0,1,230,0.4536872473333333,NA,NA,2836.969,1,1.0,0.0,2715.4361480000002,1.487603305785124,0,2698.5655976676385,2724.39,2816.84875,2838.27,1.7680554389953613,7.832494287751615,6.41575135756284,4.881749068386853,3.927679028827697,2.9135275878943503,2.0,3.0,1.0,7.0,8.0,5.0,8,3,2,1,4,0,0,5,4,3,2,1,0,0,0,0,0,1,0,0,1,0,0,0
64,0,1,234,0.292325981,NA,NA,2737.018,0,1.0,0.0,2702.743644,1.487603305785124,0,2677.7759266972093,2763.11,2776.04375,2797.58,4.435822586528957,5.740629520732909,11.160986076109111,10.154274569358677,8.401607044041157,7.195850788615644,2.0,3.0,7.0,8.0,8.0,1.0,1,6,8,3,5,0,0,1,5,4,3,2,0,0,0,0,0,0,0,0,0,0,0,0
65,0,1,245,0.3141180653333333,NA,NA,2509.2565,0,1.0,0.0,2436.7797920000003,1.487603305785124,0,2381.9441899208664,2636.24,2409.58,2333.6,2.134750159457326,11.788615612313151,10.717400253750384,7.596876516472548,7.006277016829699,5.5803764327429235,2.0,0.0,1.0,1.0,1.0,5.0,7,4,2,5,0,1,0,5,4,3,2,1,0,0,0,0,0,0,0,0,0,0,0,0
66,0,1,261,0.46095745233333335,NA,NA,3462.878,1,0.0,1.0,3501.9839920000004,1.487603305785124,0,3505.7401082882134,3465.56,3444.85125,3440.63,2.9756149435415864,18.836036353372037,17.844224386382848,17.244108009152114,16.57270442834124,15.90076942415908,2.0,4.0,4.0,7.0,6.0,5.0,7,6,8,1,2,5,0,5,4,3,2,1,0,1,0,0,0,0,0,1,0,0,0,0
67,0,1,296,0.4118213673333333,NA,NA,3604.692,1,0.0,1.0,3645.999111,1.487603305785124,0,3650.1665972511455,3549.55,3713.96125,3727.75,1.205228823237121,8.101632246747613,6.629285959061235,5.502088062465191,3.9652330768294632,2.6895749121904373,1.0,3.0,4.0,6.0,0.0,7.0,1,0,5,7,4,6,0,5,4,3,2,1,1,0,0,0,0,0,1,0,0,0,0,0
68,0,1,315,0.197730349,NA,NA,2949.441,4,1.0,0.0,2800.984836,1.487603305785124,0,2780.4435651811746,2853.63,2789.5075,2746.76,3.4751790277659893,1.6003758171573281,10.696488269139081,7.976432606577873,6.362100070808083,5.234382439404726,3.0,8.0,7.0,7.0,2.0,6.0,3,8,5,7,2,4,1,0,5,4,3,2,1,1,0,1,1,0,1,0,1,1,0,1
69,0,1,326,0.3312266446666667,NA,NA,2757.923,2,1.0,0.0,2729.440036,1.487603305785124,0,2731.3361099541858,2687.48,2734.375,2750.17,1.7490202588960528,4.583570393268019,5.717149652540684,6.445830974262208,7.596849432215095,3.008611404336989,1.0,8.0,7.0,1.0,5.0,7.0,1,8,4,6,7,2,0,5,1,2,3,4,1,0,1,0,0,0,1,0,1,0,0,0
70,0,1,330,0.30027890233333326,NA,NA,2668.9635,3,1.0,0.0,2521.6647120000002,1.487603305785124,0,2542.5043731778424,2433.71,2626.0025,2583.2,1.0324430842883885,7.49426010902971,5.719283900689334,4.6403437945991755,3.1441361769102514,1.9110962669365108,3.0,6.0,6.0,8.0,3.0,1.0,3,7,6,4,8,1,0,5,4,3,2,1,1,1,0,0,1,0,1,1,0,0,1,0
71,0,1,334,0.3339407833333334,NA,NA,2607.6575,2,1.0,0.0,2436.635834,1.487603305785124,0,2449.805914202416,2388.38,2521.77875,2496.31,1.7451623040251434,10.04565369989723,8.326557109132409,6.775936705991626,4.551572917960584,2.633231154177338,8.0,3.0,7.0,2.0,4.0,1.0,8,1,3,7,4,6,0,5,4,3,2,1,1,0,1,0,0,0,1,0,0,0,0,1
72,0,1,342,0.25169277333333334,NA,NA,2265.8155,1,1.0,0.0,2352.467301,1.487603305785124,0,2302.09162848813,2446.11,2115.20125,2187.27,2.811667832545936,1.4185054101981223,7.769712717272341,6.7061434192582965,5.019645576830953,3.977408498991281,7.0,2.0,6.0,3.0,7.0,2.0,8,5,4,1,6,2,1,0,5,4,3,2,0,0,1,0,0,0,0,1,0,0,0,0
73,0,1,346,0.25832312166666666,NA,NA,2546.5925,1,1.0,0.0,2462.772109,1.487603305785124,0,2498.529779258642,2348.55,2506.53625,2560.28,1.3851303383708,5.076557536609471,4.11618539178744,3.34917911561206,2.8144250214099884,2.182759344112128,8.0,3.0,2.0,3.0,7.0,1.0,8,0,7,2,6,3,0,5,4,3,2,1,1,0,0,0,0,0,1,0,0,0,0,0
74,0,1,372,0.18692397000000002,NA,NA,2870.1305,1,1.0,0.0,2768.529566,1.487603305785124,0,2785.8088296543106,2721.95,2804.15375,2822.78,2.8755059791728854,1.8575048511847854,7.616242126561701,6.632017489057034,5.303802246693522,4.119954681023955,3.0,8.0,6.0,7.0,2.0,2.0,4,8,7,6,3,1,1,0,5,4,3,2,1,0,0,0,0,0,0,0,1,0,0,0
75,0,1,379,0.250472551,NA,NA,2480.7075,1,1.0,0.0,2550.6517129999997,1.487603305785124,0,2535.8850478967097,2655.7,2450.19375,2429.87,3.2610747991129756,1.762320680078119,9.83317995024845,8.290081019047648,6.650388674810529,4.771342056337744,8.0,0.0,8.0,4.0,6.0,7.0,7,0,4,8,5,3,1,0,5,4,3,2,1,0,0,0,0,0,0,0,1,0,0,0
76,0,1,383,0.308156083,NA,NA,2357.055,0,1.0,0.0,2266.971724,1.487603305785124,0,2252.1995002082467,2330.25,2281.9775,2221.87,2.0283348131924868,4.730821842327714,6.9163443627767265,9.234337678644806,10.634506970178336,3.3416031897068024,7.0,8.0,1.0,3.0,0.0,1.0,6,7,0,4,5,2,0,5,1,2,3,4,0,0,0,0,0,0,0,0,0,0,0,0
77,0,1,387,0.38072946100000005,NA,NA,2078.7735,2,1.0,0.0,2381.063293,1.487603305785124,0,2425.234069137859,2319.5,2294.47875,2391.64,1.8707887367345393,10.106361748185009,8.330513707827777,7.130494777113199,5.196942716371268,2.970231425948441,0.0,6.0,3.0,5.0,2.0,4.0,0,4,3,6,1,8,0,5,4,3,2,1,1,0,0,0,1,0,1,0,0,0,1,0
78,0,1,391,0.2933928203333333,NA,NA,1975.4555,1,1.0,0.0,2050.044359,1.487603305785124,0,2037.8738025822574,2087.33,2044.11875,2076.01,6.0487430286593735,8.105323133990169,1.251189289148897,2.316150438506156,3.1639667828567326,4.401803762186319,6.0,8.0,7.0,6.0,1.0,0.0,1,5,7,4,8,3,2,3,4,5,0,1,1,0,0,0,0,0,0,0,0,0,1,0
79,0,1,417,0.21223882833333332,NA,NA,2257.775,1,1.0,0.0,2096.256179,1.487603305785124,0,2083.650145772595,2167.05,2090.38375,2060.53,0.9148302040994167,5.186565981246531,4.4272277182899415,3.48236522404477,2.4278657687827945,1.5312011949717999,4.0,5.0,0.0,8.0,5.0,7.0,0,1,4,3,6,7,0,5,4,3,2,1,0,1,0,0,0,0,0,1,0,0,0,0
80,0,1,421,0.24496273466666665,NA,NA,1946.524,0,1.0,0.0,2257.099424,1.487603305785124,0,2305.616826322366,2262.72,1884.10125,2032.65,2.928464761003852,7.428805454168469,6.308664889074862,5.75006086891517,5.182730264496058,4.190432774368674,5.0,1.0,7.0,4.0,4.0,0.0,1,4,0,6,7,5,0,5,4,3,2,1,0,0,0,0,0,0,0,0,0,0,0,0
81,0,1,425,0.28160921833333336,NA,NA,1806.2875,3,1.0,0.0,2206.317033,1.487603305785124,0,2247.0041649312784,2242.31,1824.93625,1968.71,1.8650083621032536,7.7521423739381135,6.432091786060482,5.602258608676493,4.697004582732916,3.12303003994748,1.0,6.0,4.0,4.0,2.0,5.0,1,2,8,4,7,5,0,5,4,3,2,1,1,1,0,1,0,0,1,1,0,1,0,0
82,0,1,429,0.44363970599999997,NA,NA,1862.596,1,1.0,0.0,2100.911094,1.487603305785124,0,2165.0720533111203,2095.06,1846.265,1990.41,1.5182006969116628,4.676042705774307,5.893314665183425,7.028088202700019,8.179629246238619,3.020990387070924,3.0,5.0,6.0,0.0,6.0,7.0,3,6,7,5,8,2,0,5,1,2,3,4,1,0,0,0,0,0,1,0,0,0,0,0
83,0,1,433,0.3962742736666667,NA,NA,1716.971,3,1.0,0.0,1589.725514,1.487603305785124,0,1548.4031653477718,1881.86,1522.4175,1466.98,1.641610202845186,7.927845526486635,6.543854442425072,5.528323694132268,4.224094084929675,3.3553785854019225,0.0,6.0,3.0,1.0,2.0,4.0,0,4,3,1,8,5,0,5,4,3,2,1,1,0,0,1,1,0,1,0,0,1,1,0
84,0,1,437,0.47655690966666664,NA,NA,1796.6065,2,1.0,0.0,1971.364117,1.487603305785124,0,1978.3731778425656,2014.9,1676.16375,1685.52,1.658346347976476,8.469367862213403,6.830594105646014,5.430993585847318,4.503773280419409,3.1694204341620207,5.0,6.0,1.0,5.0,3.0,0.0,5,7,8,6,1,0,0,5,4,3,2,1,1,1,0,0,0,0,1,1,0,0,0,0
85,0,1,441,0.289787368,NA,NA,1693.635,0,1.0,0.0,1967.070496,1.487603305785124,0,2033.2199083715118,1731.41,2005.26625,2079.76,2.68509971909225,1.162234808318317,7.541280001401901,5.862107768189162,4.685600352007896,3.6480731037445366,7.0,1.0,7.0,6.0,5.0,0.0,1,8,3,2,0,6,1,0,5,4,3,2,0,0,0,0,0,0,0,0,0,0,0,0
86,0,1,445,0.29182515766666667,NA,NA,1574.958,1,1.0,0.0,2014.088932,1.487603305785124,0,2045.0166597251146,2104.2,1675.47,1936.83,1.397697486449033,9.009351235348731,7.514191640075296,6.379383605439216,4.339005085639656,2.8618640094064176,3.0,0.0,0.0,6.0,5.0,7.0,4,8,0,7,6,3,0,5,4,3,2,1,0,0,0,0,1,0,0,0,0,0,1,0
87,0,1,449,0.23265569166666666,NA,NA,2263.3915,0,1.0,0.0,1938.9063350000001,1.487603305785124,0,1840.7234485630986,1925.84,2272.09625,2216.04,5.541363535448909,1.8832176113501191,3.420361972413957,4.171873137820512,8.027271965052933,6.604611242190003,4.0,3.0,3.0,0.0,6.0,0.0,5,6,1,8,7,2,1,2,3,0,5,4,0,0,0,0,0,0,0,0,0,0,0,0
88,0,2,9,0.5333823893333334,NA,NA,3362.753,0,NA,NA,NA,1.487603305785124,0,3292.5560183256976,3340.84,3340.59625,3303.26,8.608072624541819,7.913082548882812,6.847743073478341,6.066915500443429,5.402230839710683,9.472416136879474,1.0,4.0,8.0,8.0,1.0,5.0,5,0,1,2,6,7,4,3,2,1,0,5,0,0,0,0,0,0,0,0,0,0,0,0
89,0,2,19,0.41319906,NA,NA,3461.7005,1,NA,NA,NA,1.487603305785124,0,3452.81091211995,3424.86,3408.91,3301.57,0.7380465269088745,5.714207719545811,4.963261334691197,4.034293374512345,2.95366776548326,2.035425215959549,5.0,2.0,6.0,8.0,5.0,4.0,5,8,0,6,4,1,0,5,4,3,2,1,1,0,0,0,0,0,1,0,0,0,0,0
90,0,2,28,0.464037563,NA,NA,3642.8805,2,NA,NA,NA,1.487603305785124,0,3559.709287796751,3588.24,3546.10875,3501.29,2.304413212928921,1.2292341282591224,5.920333177782595,5.208908020984381,4.4023138037882745,3.4505017451010644,2.0,1.0,4.0,8.0,7.0,1.0,2,3,1,8,0,7,1,0,5,4,3,2,0,1,0,0,1,0,1,0,0,1,0,0
91,0,2,50,0.31080635966666664,NA,NA,3320.4505,1,NA,NA,NA,1.487603305785124,0,3250.7946688879633,3139.74,3338.9525,3256.61,3.452295300550759,8.991404561325908,8.056334064807743,7.168700845446438,5.991818809881806,4.839610635302961,6.0,3.0,4.0,8.0,5.0,4.0,6,5,8,2,7,0,0,5,4,3,2,1,1,0,0,0,0,0,1,0,0,0,0,0
92,0,2,82,0.29324599433333326,NA,NA,2151.0585,3,1.0,0.0,2396.651314,1.487603305785124,0,2396.7501041232817,2433.42,2224.74625,2318.52,2.269432465545833,7.01605589967221,6.217600678093731,5.481205727905035,4.665892623830587,3.3309499085880816,0.0,1.0,8.0,4.0,2.0,5.0,0,1,7,2,8,5,0,5,4,3,2,1,1,1,0,0,0,1,1,1,1,0,0,0
93,0,2,86,0.268789663,NA,NA,2698.3525,1,0.0,1.0,2587.737978,1.487603305785124,0,2610.1532694710536,2497.51,2644.0175,2604.17,3.0290843369439244,6.011433595325798,1.0053088213317096,4.907445008400828,4.180426097009331,6.6900042705237865,0.0,7.0,6.0,6.0,5.0,8.0,2,8,6,0,4,3,2,0,4,3,1,5,1,0,0,0,0,0,0,0,0,0,1,0
94,0,2,92,0.31422269666666663,NA,NA,2179.674,2,1.0,0.0,2226.577287,1.487603305785124,0,2221.7059558517285,2166.29,2243.27,2265.03,4.76271297596395,2.553649576380849,8.505388649646193,7.889707597438246,7.353734136559069,6.073426583781838,8.0,7.0,2.0,3.0,2.0,3.0,8,7,3,2,6,4,1,0,5,4,3,2,1,1,0,0,0,0,1,0,1,0,0,0
95,0,2,96,0.30408686966666665,NA,NA,2810.585,3,0.0,1.0,2801.032922,1.487603305785124,0,2824.673469387755,2613.63,2920.65,2910.38,1.4247698825784028,2.643744166009128,3.5782222277484834,4.28022772539407,5.24031249107793,7.2232778472825885,5.0,6.0,5.0,1.0,3.0,6.0,5,2,4,1,3,8,0,1,2,3,4,5,1,0,0,1,1,0,1,0,0,1,0,1
96,0,2,117,0.318369646,NA,NA,2904.9095,3,0.0,1.0,2818.232306,1.487603305785124,0,2810.7563515202,2883.74,2782.9275,2694.47,6.170477579813451,2.1750106480903924,9.102894948329777,8.622927973978221,7.865314842667431,7.2803409094922245,2.0,0.0,4.0,7.0,1.0,1.0,2,0,4,1,6,7,1,0,5,4,3,2,1,1,0,0,0,1,1,0,1,0,1,0
97,0,2,140,0.19096258233333332,NA,NA,3390.6095,0,0.0,1.0,3179.694427,1.487603305785124,0,3206.072469804248,3075.76,3270.0175,3232.97,6.172769773285836,5.7028322839178145,4.774664310738444,1.7765758968889713,3.5110834944061935,7.164305764716119,1.0,2.0,6.0,5.0,3.0,2.0,4,3,1,6,0,8,3,4,2,1,0,5,0,0,0,0,0,0,0,0,0,0,0,0
98,0,2,186,0.21181688233333337,NA,NA,2572.41,2,1.0,0.0,2376.785941,1.487603305785124,0,2383.591003748438,2200.75,2618.4375,2571.34,2.660895985085517,1.2139930399134755,7.673928414005786,6.882835579570383,5.2734158635139465,3.873450417537242,1.0,4.0,3.0,8.0,0.0,2.0,1,4,8,5,7,6,1,0,5,4,3,2,1,1,0,0,0,0,1,0,1,0,0,0
99,0,2,207,0.282810624,NA,NA,2221.018,0,1.0,0.0,2336.160716,1.487603305785124,0,2347.4381507705125,2195.31,2485.4725,2421.12,1.3681689649820328,9.717528263106942,7.5112183461897075,5.974587732926011,4.808002319186926,2.9777309452183545,0.0,2.0,1.0,7.0,3.0,2.0,4,8,6,3,7,0,0,5,4,3,2,1,0,0,0,0,0,0,0,0,0,0,0,0
100,0,2,213,0.337540819,NA,NA,2248.5835,3,1.0,0.0,2269.934049,1.487603305785124,0,2272.9587671803415,2173.45,2348.825,2356.41,2.7085804427042603,1.4338431465439498,9.284847748931497,7.004835558123887,5.797339630778879,4.071245864033699,4.0,2.0,4.0,4.0,4.0,1.0,4,2,5,8,3,1,1,0,5,4,3,2,1,1,1,0,0,0,1,1,1,0,0,0
101,0,2,217,0.3426719293333333,NA,NA,1925.1855,2,1.0,0.0,2371.954141,1.487603305785124,0,2394.7725947521867,2283.85,2212.0125,2350.62,3.1897257291711867,1.819945386145264,9.627968803048134,8.445406747050583,6.830351771786809,4.341708105523139,6.0,7.0,3.0,6.0,5.0,5.0,6,7,1,2,3,8,1,0,5,4,3,2,1,1,0,0,0,0,1,0,1,0,0,0
102,0,2,226,0.15559305533333334,NA,NA,2676.282,3,0.0,1.0,2983.470276,1.487603305785124,0,2987.0662224073303,2890.55,2889.32375,3052.37,6.860910639166832,5.116920375730842,3.6997195766307414,2.0924697467125952,10.268352796789259,8.396514897234738,3.0,2.0,4.0,1.0,7.0,8.0,3,7,2,1,0,8,3,2,1,0,5,4,1,0,0,1,1,0,1,1,0,1,0,0
103,0,2,233,0.36877251966666663,NA,NA,2134.9725,1,1.0,0.0,2316.075142,1.487603305785124,0,2342.3273635985006,2281.26,2231.98625,2318.02,3.507068165112287,2.0495943329297006,9.02600441640243,8.073910395614803,7.098760162945837,5.3803706164471805,8.0,8.0,4.0,5.0,4.0,2.0,5,8,2,6,3,7,1,0,5,4,3,2,1,0,0,0,0,0,0,0,1,0,0,0
104,0,2,243,0.2879855443333333,NA,NA,3121.081,2,0.0,1.0,3041.072836,1.487603305785124,0,3050.5256143273637,2932.6,3098.3025,3079.65,2.6408504149876535,1.3985231318511069,8.037493606563658,6.621980876661837,5.429165818262845,4.055845690891147,3.0,2.0,4.0,5.0,8.0,0.0,7,2,8,4,5,0,1,0,5,4,3,2,1,0,1,0,0,0,0,1,1,0,0,0
105,0,2,247,0.29959095966666666,NA,NA,2932.592,1,0.0,1.0,2992.075818,1.487603305785124,0,3011.820907955019,2966.58,2929.27,2948.45,4.793312612455338,2.7760915141552687,10.902604319155216,9.159714251291007,7.385040247347206,5.846868391148746,2.0,3.0,0.0,2.0,1.0,1.0,6,3,1,0,8,5,1,0,5,4,3,2,1,0,0,0,0,0,0,0,1,0,0,0
106,0,2,260,0.39174320166666665,NA,NA,3033.396,1,0.0,1.0,3155.209877,1.487603305785124,0,3213.969596001666,3031.34,3078.325,3271.52,3.6057345308363438,1.34597831312567,8.141182269901037,7.150896435603499,6.213319922331721,5.0304550915025175,6.0,2.0,8.0,4.0,0.0,1.0,2,1,5,4,7,3,1,0,5,4,3,2,0,0,0,0,1,0,0,0,0,1,0,0
107,0,2,283,0.3570011766666667,NA,NA,3410.5415,1,0.0,1.0,3428.777778,1.487603305785124,0,3407.990837151187,3532.55,3422.1125,3396.05,1.1132668368518353,5.655774758197367,4.128661592956632,3.120368073694408,4.69657607935369,2.100433691870421,1.0,5.0,2.0,1.0,1.0,4.0,1,6,8,4,2,7,0,5,3,2,4,1,1,0,0,0,0,0,1,0,0,0,0,0
108,0,2,287,0.3574054463333333,NA,NA,3363.864,1,0.0,1.0,3399.14606,1.487603305785124,0,3393.2261557684296,3460.26,3320.465,3368.04,3.473650898784399,2.3730267607606947,9.32891572965309,8.44219111977145,6.562277230899781,5.2418175265192986,2.0,8.0,1.0,6.0,3.0,1.0,8,6,1,3,4,2,1,0,5,4,3,2,0,0,0,0,0,1,0,0,0,0,1,0
109,0,2,291,0.5150941673333334,NA,NA,3587.3325,1,0.0,1.0,3452.1422420000004,1.487603305785124,0,3440.6784673052894,3493.6,3543.2025,3487.23,3.5934781404212117,2.327994576189667,6.934285904746503,6.254522662144154,5.312264543958008,4.26439021108672,0.0,0.0,5.0,7.0,1.0,2.0,1,0,8,3,5,7,1,0,5,4,3,2,1,0,0,0,0,0,0,0,1,0,0,0
110,0,2,295,0.28852210066666667,NA,NA,3012.549,3,0.0,1.0,3018.1999149999997,1.487603305785124,0,2977.0420658059143,3153.46,2942.68125,2921.97,2.8703308682888746,5.6435879319906235,6.6035073404200375,7.323170137125999,8.267028798814863,1.3562296046875417,6.0,2.0,7.0,2.0,0.0,7.0,6,2,1,8,4,7,5,0,1,2,3,4,1,1,1,0,0,0,1,1,1,0,0,0
111,0,2,299,0.2811523003333333,NA,NA,3407.5695,1,0.0,1.0,3323.624607,1.487603305785124,0,3344.8067471886716,3238.24,3369.9525,3330.55,2.2157498179003596,1.2544103334657848,3.891965008340776,4.38821881217882,5.004011623095721,3.04561834782362,1.0,0.0,3.0,2.0,1.0,8.0,6,0,8,5,2,7,1,0,5,2,3,4,1,0,0,0,0,0,0,0,1,0,0,0
112,0,2,303,0.37989317133333333,NA,NA,3200.8655,2,0.0,1.0,3049.229013,1.487603305785124,0,3042.0553935860057,3020.64,3225.6025,3151.29,2.7294519431889057,1.2042822954244912,9.479270192794502,8.639907308388501,6.447215983178467,4.209754763636738,1.0,6.0,7.0,6.0,4.0,3.0,1,6,8,2,3,4,1,0,5,4,3,2,1,1,0,0,0,0,1,0,1,0,0,0
113,0,2,337,0.2582452903333333,NA,NA,2232.226,2,1.0,0.0,2320.0279170000003,1.487603305785124,0,2267.716368179925,2520.04,2173.09625,2194.34,2.329707733821124,0.7448766347952187,3.486074927262962,4.6373836155980825,5.277139537036419,6.97362153371796,2.0,0.0,8.0,5.0,3.0,6.0,2,0,6,8,5,7,1,0,2,3,4,5,1,1,0,0,0,0,1,0,1,0,0,0
114,0,2,383,0.3851096216666667,NA,NA,3004.2245,1,1.0,0.0,2462.102881,1.487603305785124,0,2416.4164931278633,2400.96,2768.5425,2682.51,3.3126856349408627,1.4249110063537955,6.367669187486172,5.815964268986136,5.111435363069177,4.047790799289942,8.0,3.0,0.0,7.0,0.0,2.0,6,0,8,5,4,2,1,0,5,4,3,2,0,0,1,0,0,0,0,1,0,0,0,0
115,0,2,426,0.2974664043333333,NA,NA,2386.798,2,1.0,0.0,2472.150373,1.487603305785124,0,2495.5814244064973,2546.04,2289.95125,2420.49,4.668914669658989,4.117143323179334,3.629313328769058,2.7182692349888384,1.771383395884186,6.011495462153107,3.0,2.0,7.0,6.0,2.0,4.0,8,2,4,6,5,0,4,3,2,1,0,5,0,1,0,1,0,0,0,0,1,1,0,0
116,0,2,444,0.10122550599999998,NA,NA,3024.9335,1,0.0,1.0,3111.688316,1.487603305785124,0,3118.4989587671803,3109.64,2932.54375,3025.98,1.6338121849112213,5.885516362264752,4.734194844495505,6.860594179946929,10.492563772480935,2.3654211848042905,0.0,3.0,3.0,4.0,1.0,4.0,0,2,6,7,5,1,0,5,2,1,3,4,1,0,0,0,0,0,1,0,0,0,0,0
117,0,2,462,0.40380705533333333,NA,NA,3414.656,0,0.0,1.0,3575.905736,1.487603305785124,0,3576.4044148271555,3697.66,3407.385,3405.21,1.7748453482054174,10.641186546068639,8.714613129384816,4.489775792695582,3.906676667742431,2.8433240447193384,1.0,3.0,8.0,3.0,0.0,2.0,2,6,4,1,8,3,0,5,4,3,2,1,0,0,0,0,0,0,0,0,0,0,0,0
118,0,2,471,0.17625900033333333,NA,NA,3409.0865,2,0.0,1.0,3504.180458,1.487603305785124,0,3468.1095376926282,3599.21,3408.055,3427.87,1.1610054629854858,8.504316963721067,2.591404333245009,3.4736608774401248,6.945590065792203,9.871104625985026,0.0,6.0,8.0,8.0,0.0,0.0,1,4,8,6,7,0,0,2,3,4,1,5,0,1,0,0,0,1,0,1,0,0,1,0
119,0,2,475,0.26633116233333337,NA,NA,3390.9935,2,0.0,1.0,3390.704812,1.487603305785124,0,3370.475218658892,3424.47,3323.99125,3312.0,4.382959027308971,5.447318333666772,6.366377975791693,1.0161998746916652,2.2651976104825735,3.4945814153179526,5.0,3.0,1.0,2.0,3.0,0.0,7,3,5,2,8,6,3,4,5,0,1,2,1,0,0,0,1,0,0,0,1,1,0,0
120,0,2,491,0.22895150033333334,NA,NA,3017.803,2,0.0,1.0,3278.5024489999996,1.487603305785124,0,3300.7992503123696,3106.23,3339.89,3371.76,2.764406176749617,1.389361772686243,4.484716717619449,5.083152438513935,5.570336684584618,6.434771427884698,0.0,4.0,6.0,1.0,7.0,3.0,0,8,6,4,3,5,1,0,2,3,4,5,0,1,1,0,0,0,1,0,0,0,1,0
121,0,2,495,0.35613533233333333,NA,NA,3295.0935,1,0.0,1.0,3398.533143,1.487603305785124,0,3432.456892961266,3370.3,3241.7975,3242.87,4.587181167211384,5.3152566542848945,6.491214115172625,1.9912816835567355,3.0520219481550157,4.021830572746694,2.0,4.0,4.0,3.0,6.0,0.0,0,6,8,3,2,7,3,4,5,0,1,2,1,0,0,0,0,0,0,0,0,1,0,0
122,0,2,505,0.304725681,NA,NA,2591.567,1,1.0,0.0,2443.309005,1.487603305785124,0,2422.5560183256976,2339.32,2485.3675,2508.02,5.9984467825852334,4.26525348983705,2.969549755100161,0.9948767777532339,1.7129860720597208,5.287575002294034,8.0,4.0,4.0,4.0,6.0,8.0,0,6,2,4,8,7,3,4,2,1,5,0,1,0,0,0,0,0,0,0,0,1,0,0
123,0,2,528,0.31068310233333335,NA,NA,3260.5545,1,0.0,1.0,3175.569688,1.487603305785124,0,3175.2161599333613,3043.16,3282.795,3309.51,5.128310636617243,6.543156520463526,7.32778331823647,1.159315683413297,2.8313225326128304,4.138245753478259,5.0,5.0,8.0,5.0,4.0,6.0,7,2,3,5,8,4,3,4,5,0,1,2,1,0,0,0,0,0,0,0,0,1,0,0
124,0,2,573,0.20065802700000002,NA,NA,2696.6925,1,1.0,0.0,2444.546366,1.487603305785124,0,2418.6601416076633,2467.47,2538.16125,2453.27,4.654778053518385,5.550176789984107,1.8944536340422928,0.847620481159538,3.001564336474985,3.7429667594842613,5.0,1.0,3.0,1.0,5.0,6.0,0,4,2,1,8,7,3,2,4,5,0,1,1,0,0,0,0,0,0,0,0,1,0,0
125,0,2,577,0.272289344,NA,NA,2037.994,1,1.0,0.0,2467.096601,1.487603305785124,0,2483.3852561432736,2473.62,2241.84625,2447.2,6.260596403386444,5.474970335606486,4.348820746410638,1.333452504593879,3.2926141205243766,6.922920447774231,8.0,4.0,5.0,3.0,6.0,2.0,6,7,8,3,5,0,3,4,2,1,0,5,1,0,0,0,0,0,0,0,0,1,0,0
126,0,2,581,0.4754255426666667,NA,NA,2169.466,2,1.0,0.0,2090.409203,1.487603305785124,0,2084.426488962932,2085.27,2171.02875,2160.06,2.6431517312303185,1.4942241869866848,7.665294772014022,6.528884768486023,5.384735191706568,3.5961121669970453,7.0,1.0,4.0,3.0,0.0,5.0,7,1,5,4,6,2,1,0,5,4,3,2,1,1,0,0,0,0,1,0,1,0,0,0
127,0,2,587,0.29742810633333333,NA,NA,2320.6055,2,1.0,0.0,2321.518519,1.487603305785124,0,2305.669720949604,2426.56,2277.71,2234.18,6.537586263380945,9.09748548688367,1.4866596646606922,2.8666220200248063,3.8342413720674813,4.529348338488489,5.0,0.0,8.0,3.0,3.0,4.0,3,6,8,7,2,4,2,3,4,5,0,1,1,0,0,1,0,0,0,1,0,0,1,0
128,0,2,591,0.25127510366666667,NA,NA,2325.9225,2,1.0,0.0,2320.874294,1.487603305785124,0,2307.341524364848,2244.32,2429.455,2398.45,1.7507009152323008,6.2975634331814945,7.154921458102763,9.12995765125379,4.96374229574576,3.0338067109696567,8.0,1.0,3.0,8.0,2.0,0.0,8,4,5,6,1,0,0,5,4,1,2,3,1,1,0,0,0,0,1,1,0,0,0,0
129,0,2,597,0.28409356766666666,NA,NA,2179.572,3,1.0,0.0,2298.983539,1.487603305785124,0,2237.1091211995004,2509.57,2164.6575,2207.09,4.23351545445621,3.6230605454184115,1.019623339176178,2.1441584145650268,5.543082680087537,4.760463547427207,3.0,2.0,0.0,6.0,8.0,5.0,3,8,0,6,4,2,2,3,1,0,5,4,1,1,0,1,0,0,1,0,0,1,1,0
130,0,2,601,0.146322028,NA,NA,2279.1705,2,1.0,0.0,2321.781752,1.487603305785124,0,2361.6684714702205,2180.44,2320.76375,2373.42,0.9439992154948413,3.5347466813400388,4.125635841395706,4.604871537536383,2.7351045943796635,2.0386097677983344,5.0,1.0,6.0,2.0,4.0,8.0,5,7,4,6,2,8,0,5,4,1,2,3,1,1,0,0,0,0,1,1,0,0,0,0
131,0,2,621,0.33006382233333337,NA,NA,2009.132,2,1.0,0.0,2093.099879,1.487603305785124,0,2065.9558517284463,2237.89,2026.25375,2021.31,6.488474887795746,5.479354297276586,2.1759657291695476,0.9966135984286666,3.8897763062268496,7.391566725447774,0.0,4.0,2.0,5.0,6.0,5.0,6,1,2,5,8,7,3,2,4,1,0,5,1,1,0,0,0,0,0,0,0,1,1,0
132,0,2,625,0.3622847196666667,NA,NA,2062.451,2,1.0,0.0,2249.2839510000003,1.487603305785124,0,2277.733860891295,2462.37,1978.25375,2098.99,1.5653608576394618,6.098954030312598,4.6765421982854605,4.0685385670512915,3.3265268886461854,2.7188955964520574,2.0,0.0,6.0,4.0,5.0,3.0,2,8,6,3,4,5,0,5,4,3,2,1,1,0,0,0,1,0,1,0,0,0,1,0
133,0,2,629,0.39868582833333327,NA,NA,2012.0055,0,1.0,0.0,2196.788953,1.487603305785124,0,2193.0703873386087,2211.31,2167.6825,2207.9,4.276098927017301,2.5555657241493464,1.1975268833339214,3.5813902434892952,4.985804653726518,5.834143868647516,4.0,1.0,0.0,3.0,5.0,7.0,0,2,4,1,7,6,2,1,3,0,4,5,0,0,0,0,0,0,0,0,0,0,0,0
134,0,2,633,0.29097233266666667,NA,NA,1986.4715,1,1.0,0.0,2214.227799,1.487603305785124,0,2200.6055810079133,2352.07,1961.245,2040.65,0.9562598820775747,7.7959939651191235,6.444930917583406,5.324134910944849,4.18301137117669,2.500344398897141,2.0,7.0,4.0,6.0,1.0,5.0,6,2,4,5,7,8,0,5,4,3,2,1,0,0,0,0,1,0,0,0,0,0,1,0
135,0,2,645,0.4424065593333333,NA,NA,2660.745,1,1.0,0.0,2272.199368,1.487603305785124,0,2246.9650145772594,2401.99,2403.34375,2421.37,3.1251708455383778,0.6031623710878193,2.0770630165934563,8.026215960271657,5.035630487371236,3.898884067311883,4.0,6.0,1.0,2.0,5.0,7.0,2,6,7,3,1,5,1,2,0,5,4,3,1,0,0,0,0,0,0,0,1,0,0,0
136,0,2,675,0.305576891,NA,NA,2317.869,2,1.0,0.0,2293.383745,1.487603305785124,0,2271.5081216159933,2308.26,2273.54625,2140.89,5.418154738843441,6.730578083079308,7.345627641770989,0.749262307304889,2.662109079770744,3.7014361559413373,1.0,3.0,6.0,4.0,2.0,0.0,6,5,1,4,2,7,3,4,5,0,1,2,1,1,0,0,0,0,0,0,0,1,0,1
137,0,2,679,0.29698411266666663,NA,NA,2280.9475,3,1.0,0.0,2135.7282809999997,1.487603305785124,0,2089.364847980008,2287.53,2251.805,2119.58,4.726458692923188,3.7058925325982273,2.680687532760203,1.8474380183033645,5.862430500332266,5.271237710490823,8.0,2.0,4.0,8.0,7.0,7.0,7,2,4,8,5,1,3,2,1,0,5,4,1,1,1,0,0,0,0,0,1,1,1,0
138,0,2,683,0.21747818100000002,NA,NA,2284.5385,3,1.0,0.0,2407.8235489999997,1.487603305785124,0,2422.1532694710536,2446.34,2270.24375,2368.86,1.2126225712709129,3.9597648847848177,5.375637979712337,6.8483223943039775,8.16700479388237,2.272510390263051,3.0,2.0,5.0,1.0,0.0,2.0,3,4,5,0,8,2,0,5,1,2,3,4,1,1,0,1,0,0,1,1,0,0,1,0
139,0,2,694,0.34734688166666666,NA,NA,2014.9945,1,1.0,0.0,2284.524217,1.487603305785124,0,2260.005414410662,2305.1,2266.635,2289.18,6.478086748626083,8.100550012197345,9.436281024944037,2.5105466535314918,4.318593733943999,5.357102006673813,6.0,2.0,7.0,6.0,4.0,1.0,8,1,7,3,0,6,3,4,5,0,1,2,0,0,0,0,0,1,0,0,0,0,1,0
140,0,2,717,0.32891354433333336,NA,NA,2257.325,0,1.0,0.0,2171.422377,1.487603305785124,0,2118.0312369845897,2406.52,2095.72375,2002.62,2.016510346904397,4.295446860603988,4.996295713353902,5.805954170878977,6.420183500740677,3.3736337358132005,6.0,6.0,5.0,3.0,3.0,7.0,4,8,7,2,6,3,0,5,1,2,3,4,0,0,0,0,0,0,0,0,0,0,0,0
141,0,2,733,0.5642408953333332,NA,NA,2198.9105,1,1.0,0.0,2440.513462,1.487603305785124,0,2455.780924614744,2282.52,2235.61875,2320.07,1.0242627491243184,4.42081242846325,5.941381725016981,17.653404163196683,3.0074938177131116,2.277952923439443,6.0,1.0,0.0,5.0,8.0,7.0,6,3,8,7,0,2,0,5,4,1,2,3,1,0,0,0,0,0,1,0,0,0,0,0
142,0,2,737,0.49977239666666673,NA,NA,3501.5695,0,0.0,1.0,3311.078895,1.487603305785124,0,3309.917950853811,3252.9,3387.015,3341.07,3.1406921851448715,2.6613307604566216,2.013515956234187,0.7108344323933125,4.628886820748448,3.7174723837524652,1.0,6.0,3.0,8.0,0.0,1.0,2,3,8,1,6,0,3,2,1,0,5,4,0,0,0,0,0,0,0,0,0,0,0,0
143,0,2,749,0.39998445233333335,NA,NA,3368.3445,2,0.0,1.0,3214.7872859999998,1.487603305785124,0,3233.7001249479385,3070.71,3203.31125,3261.75,6.435775830410421,4.956317187286913,4.365604218095541,1.1912398883141577,2.5875703268684447,5.834956114646047,1.0,3.0,5.0,4.0,6.0,3.0,1,7,8,4,3,6,3,4,2,1,5,0,1,0,0,0,0,1,1,0,0,1,0,0
144,0,2,789,0.32341361150000003,NA,NA,2426.012,3,1.0,0.0,2147.2876920000003,1.487603305785124,0,2142.854643898376,2105.83,2309.69125,2363.73,3.873304732143879,4.8651725789532065,5.651360006071627,1.8505170834250748,6.370152396615595,6.737836979329586,3.0,0.0,8.0,2.0,7.0,6.0,3,4,5,2,0,6,3,0,1,2,4,5,1,1,0,0,0,1,1,1,0,1,0,0
145,0,3,15,0.17213980000000004,NA,NA,3475.536,2,NA,NA,NA,1.487603305785124,0,3292.893794252395,3107.1,3536.505,3502.66,0.8998140590265393,4.945287576410919,4.122478088829666,3.4170673731714487,2.675995664205402,1.8441006536595523,0.0,8.0,1.0,0.0,7.0,4.0,0,6,7,8,1,4,0,5,4,3,2,1,1,1,0,0,0,0,1,1,0,0,0,0
146,0,3,29,0.18326368333333332,NA,NA,3299.1695,1,NA,NA,NA,1.487603305785124,0,3228.1620158267388,3040.49,3322.8975,3286.83,1.8139203968457878,6.020094607025385,5.30032461322844,4.6702668918296695,4.030605908483267,3.1981854611076415,3.0,4.0,7.0,7.0,8.0,1.0,3,8,1,6,0,4,0,5,4,3,2,1,1,0,0,0,0,0,1,0,0,0,0,0
147,0,3,34,0.253927281,NA,NA,2344.99,2,NA,NA,NA,1.487603305785124,0,2201.9783423573513,2285.79,2282.62125,2189.07,0.7340773837640882,4.0593153410591185,3.307680442929268,2.699890921358019,2.205662172753364,1.436348878312856,4.0,3.0,4.0,0.0,7.0,8.0,4,1,7,6,3,8,0,5,4,3,2,1,1,1,0,0,0,0,1,1,0,0,0,0
148,0,3,73,0.3840783243333334,NA,NA,2446.655,0,NA,NA,NA,1.487603305785124,0,2456.650562265723,2242.83,2322.49125,2344.85,1.810904338490218,6.026254163123667,5.267632923088968,4.756040527485311,3.9867648663930595,2.8940125866793096,5.0,5.0,6.0,0.0,6.0,2.0,6,2,4,3,5,8,0,5,4,3,2,1,0,0,0,0,0,0,0,0,0,0,0,0
149,0,3,82,0.38532240033333337,NA,NA,2503.4335,2,0.0,1.0,2559.804694,1.487603305785124,0,2578.265306122449,2531.93,2491.37,2538.48,4.956074282992631,5.8768576313741505,7.500280822161585,1.6471950002014637,3.4126580371521413,4.301174492575228,2.0,8.0,8.0,7.0,3.0,1.0,5,4,8,7,1,0,3,4,5,0,1,2,1,0,0,0,0,1,0,0,0,1,1,0
150,0,3,96,0.438167998,NA,NA,2644.588,0,1.0,0.0,2295.2561600000004,1.487603305785124,0,2256.112036651395,2518.66,2413.11125,2205.21,6.0251437039114535,9.0008909329772,2.9729874744080007,1.1767112617380917,4.3550210716202855,5.201114279218018,7.0,4.0,3.0,8.0,1.0,0.0,3,5,6,0,7,4,3,2,4,5,0,1,0,0,0,0,0,0,0,0,0,0,0,0
151,0,3,100,0.4554849845000001,NA,NA,3039.1245,2,0.0,1.0,3019.263216,1.487603305785124,0,3008.5797584339857,3009.39,3021.70375,3020.0,4.956885673571378,7.04341453500092,8.323486311361194,1.0628993161953986,2.4125576824881136,3.9741566637530923,1.0,2.0,7.0,0.0,4.0,6.0,0,2,7,4,3,8,3,4,5,0,1,2,0,0,0,0,1,1,0,0,1,0,1,0
152,0,3,104,0.4410934899999999,NA,NA,3207.788,2,0.0,1.0,3276.61731,1.487603305785124,0,3287.814660558101,3105.88,3221.41375,3230.4,5.9216557503677905,6.761358757503331,2.588725831825286,3.8266144138760865,4.339888036251068,5.306364142801613,3.0,5.0,7.0,1.0,0.0,4.0,0,4,7,1,8,2,2,3,4,5,0,1,1,1,0,0,0,0,0,0,0,1,1,0
153,0,3,108,0.5608300703333333,NA,NA,3469.716,0,0.0,1.0,3341.229638,1.487603305785124,0,3337.2107455226987,3281.68,3382.79625,3341.08,2.0931622511707246,1.2175533520057797,5.781583654694259,4.6375153311528265,3.4373906292021275,2.8369780341163278,2.0,3.0,8.0,7.0,7.0,4.0,5,1,3,8,2,0,1,0,5,4,3,2,0,0,0,0,0,0,0,0,0,0,0,0
154,0,3,112,0.3535609863333333,NA,NA,3537.122,1,0.0,1.0,3451.204723,1.487603305785124,0,3461.8184089962515,3382.85,3483.8825,3448.46,7.8339753756299615,6.737621445208788,5.657868522685021,3.7320631621405482,1.1451038015075028,9.233168774750084,5.0,1.0,3.0,5.0,4.0,2.0,5,8,6,4,0,1,4,3,2,1,0,5,0,0,0,0,1,0,1,0,0,0,0,0
155,0,3,116,0.525394876,NA,NA,3581.2925,0,0.0,1.0,3625.862934,1.487603305785124,0,3615.7667638483963,3545.07,3566.4575,3530.74,1.8998839077539742,7.059953392017633,6.1408706568181515,5.389393703546375,4.365506429225206,3.533194319345057,2.0,1.0,7.0,4.0,3.0,7.0,7,3,0,6,8,2,0,5,4,3,2,1,0,0,0,0,0,0,0,0,0,0,0,0
156,0,3,124,0.408535606,NA,NA,3122.5105,2,0.0,1.0,3441.331487,1.487603305785124,0,3445.945022907122,3527.84,3204.325,3305.92,1.3410740466788411,6.829203964676708,5.862680246587843,4.799124062992632,3.6637877407483757,2.2966206120327115,3.0,1.0,3.0,2.0,2.0,1.0,3,2,0,8,6,1,0,5,4,3,2,1,1,1,0,0,0,0,1,1,0,0,0,0
157,0,3,152,0.41852014033333335,NA,NA,2348.9855,2,1.0,0.0,2505.104213,1.487603305785124,0,2522.115785089546,2360.95,2516.50125,2575.12,1.5204632398672402,6.980366682633758,5.397558358497918,4.700700601562858,3.6544068553484976,2.854130423627794,2.0,0.0,7.0,3.0,5.0,5.0,6,0,2,3,7,4,0,5,4,3,2,1,0,0,0,1,0,1,0,0,1,1,0,0
158,0,3,193,0.2902355426666667,NA,NA,3228.2455,4,0.0,1.0,3156.904003,1.487603305785124,0,3145.4489795918366,3167.74,3172.24,3125.3,3.2486025891266763,1.4046918116509914,5.52812355523929,4.928678870201111,4.521527227945626,3.722583632450551,8.0,4.0,7.0,3.0,5.0,5.0,8,4,2,3,5,1,1,0,5,4,3,2,1,1,0,1,1,0,1,0,1,1,0,1
159,0,3,233,0.48221231600000003,NA,NA,2579.1835,1,1.0,0.0,2237.962252,1.487603305785124,0,2237.7242815493546,2506.95,2316.48875,2133.01,2.0671393033117056,3.429694106336683,4.123662103433162,5.034009701572359,5.8190048462711275,7.066561978776008,5.0,3.0,3.0,5.0,3.0,5.0,5,1,7,4,0,2,0,1,2,3,4,5,1,0,0,0,0,0,1,0,0,0,0,0
160,0,3,247,0.285093789,NA,NA,2191.9695,1,1.0,0.0,2331.0832100000002,1.487603305785124,0,2304.0320699708454,2524.08,2232.14625,2205.76,3.178794762585312,1.4724289663136005,4.137130733113736,6.36909125931561,5.056273908820003,7.520592959597707,6.0,1.0,4.0,0.0,2.0,3.0,2,5,7,0,4,6,1,0,2,4,3,5,0,0,0,0,1,0,0,0,0,1,0,0
161,0,3,253,0.4365117646666667,NA,NA,2179.494,4,1.0,0.0,2274.306676,1.487603305785124,0,2269.758433985839,2314.08,2243.165,2286.11,5.896299933083355,4.986219472717494,3.1626695841550827,1.939760083798319,7.6403201315552,6.689575482625514,0.0,2.0,6.0,5.0,4.0,3.0,4,2,6,5,7,3,3,2,1,0,5,4,1,1,1,0,1,0,0,1,1,1,1,0
162,0,3,268,0.4371218763333333,NA,NA,2230.2035,1,1.0,0.0,2062.105746,1.487603305785124,0,1983.3752603082048,2211.98,2203.19625,2079.12,7.370573772583157,6.676101720891893,6.004667920060456,1.6667348053306341,2.9341051522642374,4.89281517220661,0.0,5.0,1.0,0.0,5.0,6.0,1,7,3,0,2,5,3,4,5,2,1,0,1,0,0,0,0,0,0,0,0,1,0,0
163,0,3,272,0.3608593213333333,NA,NA,2394.65,0,1.0,0.0,2266.113827,1.487603305785124,0,2248.820491461891,2482.8,2181.425,2177.2,1.768495916388929,5.83202587114647,6.782617422286421,7.72645384632051,4.784162656869739,3.634720509406179,6.0,6.0,2.0,1.0,4.0,2.0,3,1,7,2,8,0,0,5,4,1,2,3,0,0,0,0,0,0,0,0,0,0,0,0
164,0,3,293,0.38718779999999997,NA,NA,2192.746,2,1.0,0.0,2281.736901,1.487603305785124,0,2276.786755518534,2431.36,2148.86625,2103.98,3.277528126258403,1.7893391926772892,6.89015007019043,8.225100767798722,9.504908543080091,4.6490894802846014,4.0,3.0,1.0,0.0,3.0,2.0,0,3,1,4,7,5,1,0,5,2,3,4,1,0,0,1,0,0,0,0,1,0,1,0
165,0,3,297,0.33261497966666664,NA,NA,2505.3815,0,1.0,0.0,2138.2493449999997,1.487603305785124,0,2144.770928779675,2135.69,2073.52,2029.29,6.944509256631136,5.505862483289093,4.473980757873505,1.1248213145881891,3.452218893915415,8.39965212251991,4.0,3.0,8.0,1.0,0.0,1.0,5,6,2,0,4,3,3,4,2,1,0,5,0,0,0,0,0,0,0,0,0,0,0,0
166,0,3,330,0.4386506696666667,NA,NA,2221.7875,2,1.0,0.0,2157.7391820000003,1.487603305785124,0,2149.0995418575594,2326.93,2060.63125,1961.57,0.9684099308215082,6.831750181037933,5.599007058888674,4.457126582507044,3.2329851710237563,2.239787339232862,2.0,7.0,7.0,7.0,1.0,1.0,3,6,5,7,4,1,0,5,4,3,2,1,0,1,0,1,0,0,0,1,0,1,0,0
167,0,3,378,0.18604139966666666,NA,NA,2817.542,3,1.0,0.0,2250.930833,1.487603305785124,0,2295.4185755935027,1974.09,2545.9575,2492.78,4.52303454419598,6.203616875689477,7.498148284386843,0.811168055050075,2.1471719071269035,3.588995249941945,3.0,5.0,2.0,2.0,6.0,4.0,3,4,0,2,6,7,3,4,5,0,1,2,1,1,0,1,0,0,1,0,0,1,0,1
168,0,3,382,0.22978408366666667,NA,NA,3348.1295,3,0.0,1.0,3289.5929309999997,1.487603305785124,0,3298.7942523948354,3324.23,3335.16875,3355.7,2.021183398552239,0.9767955369316041,6.945547015871853,6.065136770252138,5.034710758831352,3.3641085904091597,1.0,2.0,0.0,3.0,1.0,7.0,1,2,8,0,4,7,1,0,5,4,3,2,1,1,1,0,0,0,1,1,1,0,0,0
169,0,3,386,0.362851971,NA,NA,2850.1085,3,0.0,1.0,2953.727866,1.487603305785124,0,2945.8217409412746,2961.02,2839.89875,2887.21,3.2179835657589138,1.5266892234794796,4.832549882121384,8.438343713525683,5.965671843383461,7.0231440220959485,4.0,7.0,3.0,5.0,3.0,0.0,4,7,5,1,6,0,1,0,2,4,5,3,1,1,0,0,1,0,1,1,1,0,0,0
170,0,3,390,0.4704500966666667,NA,NA,3521.566,2,0.0,1.0,3549.149835,1.487603305785124,0,3548.054144106622,3265.29,3582.345,3606.94,1.6203831839375198,4.969013484660536,4.049368820153177,2.6665979577228427,3.274281138088554,6.623978848103434,0.0,6.0,1.0,2.0,4.0,0.0,0,4,1,3,6,8,0,3,4,2,1,5,1,0,0,1,0,0,1,0,0,0,1,0
171,0,3,394,0.472702376,NA,NA,3001.603,2,0.0,1.0,2961.934345,1.487603305785124,0,2960.411911703457,3024.01,2911.6025,2924.27,1.6538534788414836,5.945070046000183,5.266390177886933,4.682492206804454,3.9001812655478716,3.173266700003296,7.0,3.0,4.0,7.0,7.0,6.0,7,5,8,1,0,6,0,5,4,3,2,1,1,1,0,0,0,0,1,1,0,0,0,0
172,0,3,399,0.314568046,NA,NA,3484.992,1,0.0,1.0,3274.613847,1.487603305785124,0,3316.1324448146606,3071.15,3384.12375,3409.88,2.7428173678927124,1.6712576099671423,5.683291908819228,5.092076880857348,4.516097809653729,3.435096155386418,8.0,2.0,8.0,8.0,7.0,8.0,8,5,4,2,3,7,1,0,5,4,3,2,0,1,0,0,0,0,1,0,0,0,0,0
173,0,3,403,0.44236465,NA,NA,3319.4825,1,0.0,1.0,3287.689991,1.487603305785124,0,3273.941274468971,3416.89,3279.1575,3210.58,5.187013016082346,2.6861685537733138,1.072141929063946,1.6756820557639003,3.3569862567819655,4.155568632297218,5.0,4.0,0.0,4.0,5.0,0.0,8,5,0,6,2,1,2,3,1,4,5,0,1,0,0,0,0,0,0,0,0,0,1,0
174,0,3,430,0.13679165566666665,NA,NA,2461.059,2,1.0,0.0,2155.341564,1.487603305785124,2,2033.6326530612246,2211.95,2141.30875,2224.64,2.872546084690839,1.0983712887391448,6.294241178780794,6.686325643211603,4.415286932140589,3.8646682393737137,5.0,1.0,2.0,3.0,3.0,6.0,5,1,3,6,0,7,1,0,5,4,2,3,1,1,0,0,0,0,1,0,1,0,0,0
175,0,3,435,0.11951534366666668,NA,NA,3394.895,1,0.0,1.0,3324.245703,1.487603305785124,0,3337.5164514785506,3255.96,3298.85625,3224.28,1.0872991979122162,6.505808884743601,5.402261060196906,4.491214115172625,3.475094638299197,2.372086790855974,4.0,3.0,8.0,1.0,7.0,8.0,4,0,1,3,8,6,0,5,4,3,2,1,1,0,0,0,0,0,1,0,0,0,0,0
176,0,3,440,0.42685433366666664,NA,NA,3251.2285,0,0.0,1.0,3144.609751,1.487603305785124,0,3145.7455226988754,2954.91,3199.01125,3155.08,1.0460585397668183,5.8616114114411175,4.782532462384552,4.031698121223599,3.369056192226708,2.2891803923994303,8.0,1.0,6.0,3.0,1.0,7.0,7,2,8,1,4,0,0,5,4,3,2,1,0,0,0,0,0,0,0,0,0,0,0,0
177,0,3,444,0.419571774,NA,NA,3064.9375,2,0.0,1.0,3154.600165,1.487603305785124,0,3164.0116618075804,3079.7,3122.58375,3017.74,4.056926500052214,2.110678996425122,1.1546403509564698,2.8805271359160542,6.166860533878207,5.1430550827644765,0.0,7.0,0.0,8.0,4.0,1.0,2,7,0,3,5,8,2,1,3,0,5,4,1,1,0,0,0,0,0,0,1,0,1,0
178,0,3,480,0.24631144100000002,NA,NA,2592.762,0,0.0,1.0,2921.647258,1.487603305785124,0,2904.9046230737194,3204.41,2502.10125,2555.38,3.597398532088846,2.263641827274114,4.488352295011282,4.940905895084143,5.700860826764256,6.8130693775601685,3.0,7.0,5.0,3.0,4.0,5.0,5,8,6,1,7,0,1,0,2,3,4,5,0,0,0,0,0,0,0,0,0,0,0,0
179,0,3,516,0.23614900566666666,NA,NA,2988.7265,2,0.0,1.0,3198.995795,1.487603305785124,0,3202.514785506039,3137.55,3173.505,3187.16,3.7646051752381027,2.566233259625733,1.4130623070523143,6.195465905126184,5.436351159121841,4.324785790871829,3.0,0.0,1.0,7.0,6.0,2.0,0,3,1,7,8,5,2,1,0,5,4,3,1,0,0,0,0,1,0,0,0,1,1,0
180,0,3,520,0.26837579500000003,NA,NA,3504.2025,1,0.0,1.0,3384.7855729999997,1.487603305785124,0,3412.2548937942524,3266.96,3552.55875,3562.28,4.149608075153083,1.0565119665116072,2.0484145949594676,2.560368210542947,2.7674407665617764,3.5107419467531145,4.0,1.0,7.0,4.0,0.0,1.0,4,5,3,1,2,8,1,2,3,4,5,0,0,0,0,0,0,1,1,0,0,0,0,0
181,0,3,524,0.15892082166666666,NA,NA,3396.204,1,0.0,1.0,3418.621399,1.487603305785124,0,3429.422740524781,3375.04,3431.30625,3433.18,6.052417094353586,5.2363236756064,4.420860040001571,1.091697129420936,2.734709732234478,7.1400415902026,3.0,3.0,1.0,6.0,8.0,1.0,2,5,8,6,3,7,3,4,2,1,0,5,1,0,0,0,0,0,0,0,0,1,0,0
182,0,3,528,0.32418965000000005,NA,NA,3141.2775,2,0.0,1.0,3037.9989809999997,1.487603305785124,0,3028.6393169512703,3112.72,2995.3975,2979.17,4.85631456412375,3.8896913463249803,3.145913766697049,2.306221878156066,0.5624311841093004,5.344894367735833,1.0,0.0,4.0,6.0,2.0,6.0,8,4,0,6,2,1,4,3,2,1,0,5,1,1,0,0,0,0,0,0,0,1,0,1
183,0,3,532,0.24409793566666668,NA,NA,3604.9975,1,0.0,1.0,3337.284539,1.487603305785124,0,3351.2573927530198,3219.31,3508.8075,3460.23,4.222787762992084,3.3581007071770728,2.8955615274608135,1.323257377371192,2.2715664291754365,4.7823234857060015,7.0,4.0,4.0,4.0,1.0,4.0,6,8,0,4,3,2,3,4,2,1,0,5,1,0,0,0,0,0,0,0,0,1,0,0
184,0,3,536,0.496099946,NA,NA,3546.3405,1,0.0,1.0,3606.477748,1.487603305785124,0,3603.7542690545606,3593.52,3582.2925,3558.89,2.388969191815704,1.80464727897197,1.1573197077959776,3.1073858221061528,3.7788301720283926,4.306173411663622,1.0,1.0,4.0,0.0,1.0,0.0,2,8,6,0,7,3,2,1,0,3,4,5,0,0,0,1,0,0,0,0,0,1,0,0
185,0,3,554,0.19649264066666663,NA,NA,3323.6815,1,0.0,1.0,3225.204826,1.487603305785124,0,3209.471470220741,3202.64,3275.93,3236.78,3.6698227087035775,2.717414509039372,6.434740351978689,5.9542929865419865,5.4031274751760066,4.533051484730095,4.0,1.0,4.0,4.0,0.0,8.0,2,1,5,8,4,0,1,0,5,4,3,2,1,0,0,0,0,0,0,0,1,0,0,0
186,0,3,558,0.35611870166666665,NA,NA,3024.516,1,0.0,1.0,3247.709699,1.487603305785124,0,3269.9350270720533,3223.23,3200.81,3225.36,5.684206504840404,4.5497474311850965,2.9001296628266573,2.174219214823097,1.1934987246058881,6.652791201137006,2.0,7.0,5.0,4.0,0.0,0.0,7,1,2,6,0,4,4,3,2,1,0,5,1,0,0,0,0,0,0,0,0,0,0,1
187,0,3,586,0.349972735,NA,NA,3311.876,1,0.0,1.0,3223.555081,1.487603305785124,0,3229.1907538525616,3161.52,3306.365,3273.52,1.1081008496694267,7.850551865529269,7.067356263287365,4.6026452020742,5.803058424033225,2.501026925165206,3.0,1.0,3.0,2.0,4.0,4.0,3,4,2,1,8,5,0,5,3,4,2,1,1,0,0,0,0,0,1,0,0,0,0,0
188,0,3,703,0.35795236066666664,NA,NA,2016.129,0,1.0,0.0,2225.535759,1.487603305785124,0,2199.725531028738,2337.19,2055.8625,2152.04,5.2132292608730495,3.3690453586168587,7.76918043801561,7.345294646453112,6.6415121289901435,6.02453473303467,1.0,6.0,7.0,2.0,3.0,4.0,0,5,1,4,8,7,1,0,5,4,3,2,0,0,0,0,0,0,0,0,0,0,0,0
189,0,3,737,0.29873366799999995,NA,NA,2290.419,0,1.0,0.0,2271.213644,1.487603305785124,0,2246.1149521032903,2486.86,2062.05875,2063.38,4.256072743795812,3.34558288147673,1.7866846392862499,1.156601829919964,2.651319522410631,5.40832966985181,3.0,7.0,6.0,2.0,5.0,5.0,8,1,3,5,6,0,3,2,4,1,0,5,0,0,0,0,0,0,0,0,0,0,0,0
190,0,3,744,0.3272346933333334,NA,NA,2257.736,2,1.0,0.0,2331.8312760000003,1.487603305785124,0,2326.5043731778424,2269.42,2303.95375,2390.72,4.130504185333848,2.970293292310089,1.5343626532703638,6.730166685767472,5.857699288055301,5.307622282765806,4.0,6.0,2.0,4.0,8.0,4.0,0,6,2,8,3,5,2,1,0,5,4,3,1,1,0,0,0,0,0,0,1,0,1,0
191,0,3,778,0.2603611023333333,NA,NA,2157.615,2,1.0,0.0,2113.255144,1.487603305785124,0,2121.493544356518,2253.3,1863.04375,1867.63,2.849936907645315,1.0500402273610234,6.417331374250352,5.546004086267203,4.13131956756115,3.4490679842419922,7.0,3.0,4.0,2.0,5.0,2.0,5,3,7,2,8,1,1,0,5,4,3,2,1,0,0,0,1,0,0,0,1,1,0,0
192,0,3,782,0.3035888976666667,NA,NA,2059.671,0,1.0,0.0,2341.90535,1.487603305785124,0,2391.1728446480633,2396.44,1983.99,2127.97,2.4060788159258664,1.9416611213237047,1.382919683586806,0.8534755515865982,3.445358280558139,2.924932959023863,3.0,3.0,0.0,2.0,7.0,2.0,8,7,3,5,1,0,3,2,1,0,5,4,0,0,0,0,0,0,0,0,0,0,0,0
193,0,3,786,0.32920444000000004,NA,NA,2431.4705,2,1.0,0.0,2413.897119,1.487603305785124,0,2426.81091211995,2518.26,2350.1,2290.32,5.183848135638982,1.5123767019249499,2.7202061945572495,4.008140136022121,6.15189656149596,5.66367626702413,0.0,8.0,0.0,8.0,7.0,4.0,5,7,0,8,4,6,1,2,3,0,5,4,0,1,1,0,0,0,0,0,0,1,1,0
194,0,4,3,0.43092763300000003,NA,NA,2745.96,1,NA,NA,NA,1.487603305785124,0,2581.777176176593,2482.42,2679.1475,2595.09,1.9906681515276432,1.3346196981146932,3.916902585886419,3.4706784607842565,2.782991756685078,2.397237907163799,0.0,7.0,3.0,3.0,0.0,3.0,7,2,4,6,1,3,1,0,5,4,3,2,0,0,1,0,0,0,0,1,0,0,0,0
195,0,4,21,0.5137982036666666,NA,NA,3080.606,1,NA,NA,2875.765432,1.487603305785124,0,2893.9046230737194,2692.11,2876.55,2882.62,2.9601132753305137,2.111264303792268,0.8339859237894416,4.429758823476732,5.204692267347127,3.6062323129735887,5.0,8.0,5.0,7.0,4.0,1.0,1,6,7,5,4,0,2,1,0,5,3,4,0,0,0,0,0,1,0,0,0,0,0,1
196,0,4,48,0.3613860886666667,NA,NA,2007.5355,3,NA,NA,NA,1.487603305785124,2,2192.4956268221576,2237.9,1647.33375,2004.23,2.726515142247081,1.4060443192720413,3.8915932392701507,4.484124567359686,5.450742083135992,6.553980290424079,3.0,0.0,5.0,2.0,0.0,4.0,3,0,6,2,8,7,1,0,2,3,4,5,1,1,0,1,0,0,1,0,1,1,0,0
197,0,4,59,0.25720829166666664,NA,NA,2776.2115,3,NA,NA,NA,1.487603305785124,0,2443.0470637234484,0.0,2873.3625,2886.05,2.7600304828956723,2.216586867813021,1.2883433434180915,4.527498333714902,4.032454488333315,3.4322317694313824,5.0,2.0,6.0,4.0,8.0,3.0,8,5,6,4,0,3,2,1,0,5,4,3,1,0,0,1,0,1,0,1,0,1,1,0
198,0,4,81,0.5343693056666666,NA,NA,2658.1875,0,1.0,0.0,2827.695679,1.487603305785124,0,2816.636817992503,2686.94,2764.39875,2821.7,5.57137815002352,4.6120106927119195,2.710500297136605,8.521689448971301,7.954560694284737,6.377044656313956,4.0,5.0,8.0,8.0,3.0,6.0,8,0,5,2,4,1,2,1,0,5,4,3,0,0,0,0,0,0,0,0,0,0,0,0
199,0,4,119,0.24808703566666668,NA,NA,3359.8935,3,0.0,1.0,3317.233756,1.487603305785124,0,3339.290712203249,3207.26,3376.355,3364.19,1.7832899698987603,3.004090595059097,3.5507084988057613,3.995632003992796,4.651183815207332,5.571500171907246,1.0,1.0,3.0,2.0,0.0,3.0,1,7,3,2,4,8,0,1,2,3,4,5,1,0,1,1,0,0,1,0,0,1,1,0
200,0,4,123,0.394636002,NA,NA,2818.0875,2,1.0,0.0,2499.483752,1.487603305785124,0,2510.2823823406916,2288.97,2694.5375,2633.86,5.207044616341591,4.241440626326948,3.1839624606072903,1.3034270568750799,2.4577076132409275,5.935504131484777,3.0,6.0,3.0,3.0,0.0,2.0,5,2,6,3,0,1,3,4,2,1,0,5,1,1,0,0,0,0,0,0,0,1,0,1
201,0,4,127,0.38503121933333334,NA,NA,2392.9905,2,1.0,0.0,2400.806023,1.487603305785124,0,2402.5414410662224,2377.49,2393.64125,2404.68,1.625462501309812,3.391085763927549,4.464620114769787,5.318820387125015,5.750466278754175,2.618754415307194,8.0,5.0,8.0,4.0,1.0,3.0,8,7,1,0,6,3,0,5,1,2,3,4,1,1,0,0,0,0,1,1,0,0,0,0
202,0,4,134,0.36239885433333335,NA,NA,3382.7655,4,0.0,1.0,3254.525139,1.487603305785124,0,3259.209496043315,3137.76,3293.20375,3271.63,4.357198369689286,3.8363379877991974,0.8860058761201799,2.2530364426784217,2.8701957315206528,4.956076278351247,4.0,4.0,1.0,7.0,0.0,5.0,8,6,1,7,0,5,2,3,4,1,0,5,1,1,1,0,0,1,0,1,0,1,1,1
203,0,4,154,0.30676622699999995,NA,NA,3457.588,1,0.0,1.0,3350.301994,1.487603305785124,0,3363.946272386506,3308.96,3382.27875,3362.29,3.5891945338808,4.157507588155568,1.3742581023834646,1.8082218458876014,2.4054122557863593,2.7890318566933274,2.0,6.0,3.0,1.0,1.0,6.0,0,4,6,7,1,3,2,3,4,5,0,1,0,0,1,0,0,0,0,0,0,0,0,1
204,0,4,160,0.279420611,NA,NA,2686.018,1,1.0,0.0,2682.66561,1.487603305785124,0,2668.174927113703,2609.1,2851.65875,2826.46,4.645329314749688,3.9587698904797435,3.1600843095220625,1.1913850037381053,2.071778428275138,5.1096472246572375,4.0,7.0,5.0,8.0,3.0,4.0,3,0,4,8,7,2,3,4,2,1,0,5,1,0,0,0,0,0,0,0,0,1,0,0
205,0,4,164,0.5512092270000001,NA,NA,2797.8985,1,1.0,0.0,2614.7144329999996,1.487603305785124,0,2577.8912952936275,2570.65,2756.22,2696.43,1.9320005541667342,0.8216944667510688,5.227578560356051,4.668584525119513,3.4045734954997897,2.717889483552426,2.0,7.0,7.0,2.0,8.0,8.0,0,7,1,3,2,6,1,0,5,4,3,2,1,0,0,0,0,0,0,0,1,0,0,0
206,0,4,179,0.42690080466666663,NA,NA,3581.6655,1,0.0,1.0,3348.156923,1.487603305785124,0,3317.456892961266,3147.18,3539.67375,3497.15,2.663730435539037,1.1321358047425747,1.798062355723232,4.772791497409344,4.276298210956156,3.2864950485527515,1.0,0.0,1.0,7.0,6.0,1.0,8,0,3,1,5,7,1,2,0,5,4,3,1,0,0,0,0,0,0,0,1,0,0,0
207,0,4,200,0.28150202100000005,NA,NA,3315.9095,0,0.0,1.0,3268.216533,1.487603305785124,0,3276.733860891295,3196.79,3289.9625,3254.19,4.025876977480948,0.6053704600781202,2.018694202415645,2.5331484181806445,3.0896461298689246,3.5385273741558194,7.0,4.0,6.0,4.0,1.0,0.0,2,7,3,5,4,1,1,2,3,4,5,0,0,0,0,0,0,0,0,0,0,0,0,0
208,0,4,228,0.5418956246666666,NA,NA,3371.5435,0,0.0,1.0,3291.533591,1.487603305785124,0,3284.3773427738442,3196.06,3328.825,3278.19,5.551204570103437,6.046835148707032,2.1423357790336013,1.2347616204060614,4.879997422918677,4.247148585971445,7.0,7.0,4.0,4.0,8.0,7.0,5,0,1,6,7,3,3,2,5,4,0,1,0,0,0,0,0,0,0,0,0,0,0,0
209,0,4,232,0.39430210450000003,NA,NA,3341.856,1,0.0,1.0,3349.77214,1.487603305785124,0,3349.746772178259,3257.13,3290.5275,3356.78,3.298588647507131,2.552641182206571,1.3062769025564194,1.9479769114404917,4.83249970478937,4.1696793041191995,7.0,2.0,6.0,5.0,7.0,6.0,5,0,2,1,3,6,2,3,1,0,5,4,0,0,0,0,1,0,0,1,0,0,0,0
210,0,4,237,0.410117713,NA,NA,3141.334,0,0.0,1.0,3212.2571350000003,1.487603305785124,0,3208.6234902124115,3271.8,3154.6275,3126.73,4.305474634747952,5.112646462395787,2.480727902147919,1.7956447191536427,3.0675139226950705,3.83275515306741,3.0,5.0,4.0,3.0,1.0,1.0,6,2,8,0,7,5,3,2,4,5,0,1,0,0,0,0,0,0,0,0,0,0,0,0
211,0,4,252,0.37034388833333326,NA,NA,3433.256,2,0.0,1.0,3378.63314,1.487603305785124,0,3372.8433985839233,3276.01,3493.9375,3446.2,2.7956940410658717,1.7084059622138739,5.18741386430338,4.404931579250842,3.7409548182040453,3.316371390130371,8.0,1.0,1.0,0.0,6.0,4.0,8,1,0,3,4,7,1,0,5,4,3,2,1,1,0,0,0,0,1,0,1,0,0,0
212,0,4,256,0.168607761,NA,NA,2924.5125,1,0.0,1.0,3240.3382300000003,1.487603305785124,0,3233.3461057892546,3256.1,3048.2725,3070.46,1.0478962855413556,2.609309382736683,3.2473213556222618,3.6701856390573084,4.406225356739014,1.978309410624206,8.0,7.0,7.0,6.0,2.0,2.0,8,2,5,4,6,3,0,5,1,2,3,4,1,0,0,0,0,0,1,0,0,0,0,0
213,0,4,305,0.2524140723333333,NA,NA,2774.9365,0,1.0,0.0,2758.553364,1.487603305785124,0,2791.527280299875,2720.79,2708.9775,2688.46,1.7541238092817366,1.0530386096797884,5.704573951661587,5.19232440367341,4.0338574587367475,2.2641589962877333,1.0,0.0,4.0,6.0,5.0,5.0,2,4,5,1,6,8,1,0,5,4,3,2,0,0,0,0,0,0,0,0,0,0,0,0
214,0,4,325,0.418424442,NA,NA,2798.0415,1,1.0,0.0,2791.328924,1.487603305785124,0,2774.640149937526,2778.95,2820.62,2851.68,1.5068053044378757,4.635350292082876,3.0139501611702144,2.4706898643635213,3.5947320042178035,4.15510506182909,1.0,7.0,4.0,8.0,2.0,4.0,1,6,7,0,8,5,0,3,2,4,5,1,1,0,0,0,0,0,1,0,0,0,0,0
215,0,4,393,0.316843513,NA,NA,2633.3315,2,1.0,0.0,2758.197182,1.487603305785124,0,2761.3669304456475,2690.46,2782.1275,2822.64,1.1109361555427313,3.989754695445299,4.556779959239066,5.243669242132455,3.221959266345948,2.1875951872207224,6.0,0.0,8.0,3.0,0.0,5.0,6,8,3,1,4,5,0,5,4,1,2,3,1,1,0,0,0,0,1,1,0,0,0,0
216,0,4,398,0.3823985236666667,NA,NA,3409.9865,1,0.0,1.0,3355.5823259999997,1.487603305785124,0,3364.039566847147,3246.56,3427.41125,3384.97,1.7322841137647629,7.113589853979647,6.249849610496312,5.298824709840119,4.155666136182845,3.275701784994453,5.0,2.0,5.0,1.0,4.0,4.0,5,4,3,2,7,6,0,5,4,3,2,1,1,0,0,0,0,0,1,0,0,0,0,0
217,0,4,402,0.34748429933333336,NA,NA,3559.03,1,0.0,1.0,3272.847737,1.487603305785124,0,3264.606413994169,3152.29,3504.91875,3426.52,1.4579912861809134,4.465990298893303,2.3968843850307167,2.8921828237362206,3.427378250285983,3.8101174663752317,5.0,8.0,4.0,2.0,6.0,4.0,5,4,1,0,7,2,0,2,3,4,5,1,1,0,0,0,0,0,1,0,0,0,0,0
218,0,4,406,0.381201774,NA,NA,3331.4735,2,0.0,1.0,3440.5350350000003,1.487603305785124,0,3447.204498125781,3464.24,3398.52875,3433.46,2.412621830124408,2.0520524536259472,0.8938817265443504,1.4396563079208136,3.9876820286735892,3.2208941378630698,8.0,3.0,7.0,4.0,4.0,4.0,1,5,7,6,4,8,2,3,1,0,5,4,1,0,0,0,0,1,0,0,0,0,1,1
219,0,4,423,0.19051326666666668,NA,NA,3406.8205,3,0.0,1.0,3309.909175,1.487603305785124,0,3301.179925031237,3310.83,3359.5725,3305.5,1.7821127972565591,0.7467055423185229,2.4375825002789497,3.1092133042402565,3.4940867689438164,4.237210617400706,6.0,0.0,1.0,8.0,3.0,5.0,6,0,2,5,3,7,1,0,2,3,4,5,1,1,0,0,1,0,1,0,1,0,0,1
220,0,4,439,0.36115097766666665,NA,NA,2980.176,1,1.0,0.0,2750.012185,1.487603305785124,0,2781.4927113702624,2753.5,2755.695,2737.26,3.8791512502357364,3.4316031271591783,2.034816815983504,1.2796355755999684,2.870965783018619,4.751348374411464,3.0,2.0,6.0,1.0,1.0,4.0,8,2,3,4,7,1,3,2,4,1,0,5,0,0,0,1,0,0,0,0,1,0,0,0
221,0,4,443,0.40969947366666665,NA,NA,3054.6745,2,1.0,0.0,2756.4981989999997,1.487603305785124,0,2776.1428571428573,2904.32,2665.5975,2658.19,1.968103735242039,1.0145126613788307,2.696533314883709,3.3262916821986437,3.831603355240077,4.214410995133221,1.0,3.0,2.0,5.0,5.0,4.0,1,3,4,8,2,0,1,0,2,3,4,5,1,1,0,0,0,0,1,0,1,0,0,0
222,0,4,457,0.2766528736666667,NA,NA,2864.7615,2,1.0,0.0,2682.6786829999996,1.487603305785124,0,2693.3998334027488,2694.8,2655.07,2645.52,1.0776086952537298,2.945748010184616,4.097481780685484,4.5047209481708705,5.024357971735299,1.667659664992243,3.0,2.0,8.0,5.0,5.0,1.0,3,8,7,5,1,6,0,5,1,2,3,4,1,0,0,0,1,0,1,0,0,1,0,0
223,0,4,461,0.4825948236666667,NA,NA,2557.2005,2,1.0,0.0,2535.870796,1.487603305785124,0,2581.996668054977,2491.49,2516.8375,2497.67,0.8156053298152983,5.691639311145991,4.524259897880256,3.973229523282498,3.540491418913007,1.9073130078613758,4.0,4.0,8.0,5.0,1.0,6.0,4,7,1,0,5,6,0,5,4,3,2,1,1,1,0,0,0,0,1,1,0,0,0,0
224,0,4,485,0.21945714566666666,NA,NA,2882.398,1,1.0,0.0,2769.94695,1.487603305785124,0,2771.670970428988,2827.48,2750.8275,2704.79,0.8901084456592798,1.4207616806961596,2.0764942443929613,2.4660225147381425,3.051042634062469,4.074350017588586,3.0,1.0,8.0,7.0,5.0,3.0,5,7,1,6,0,3,0,1,2,3,4,5,0,0,0,0,0,1,0,1,0,0,0,0
225,0,4,499,0.36943404300000005,NA,NA,2535.8565,1,1.0,0.0,2454.0919910000002,1.487603305785124,0,2435.3619325281134,2502.34,2534.72625,2454.48,1.9649910279549658,0.8557437965646386,3.388313749805093,4.250322588719428,4.626788780093193,5.091113817412406,6.0,4.0,5.0,3.0,1.0,3.0,6,0,7,8,4,1,1,0,2,3,4,5,0,1,0,0,0,0,1,0,0,0,0,0
226,0,4,503,0.375163195,NA,NA,2327.825,2,1.0,0.0,2555.057411,1.487603305785124,0,2581.438983756768,2487.2,2307.485,2459.32,4.387605850119144,5.179650058969855,1.1085401866585016,2.7640269957482815,3.4381583998911083,3.979088300373405,0.0,5.0,2.0,6.0,3.0,6.0,1,4,2,6,8,0,2,3,4,5,0,1,1,1,0,0,0,0,0,0,0,1,1,0
227,0,4,507,0.35387459466666665,NA,NA,2943.975,3,1.0,0.0,2902.831141,1.487603305785124,0,2934.0104123281967,2614.47,2942.6775,2971.53,2.2485150638967752,1.0748754548840225,2.8731638938188553,3.7525024535134435,4.177656934130937,4.640360900666565,0.0,7.0,8.0,8.0,0.0,4.0,0,7,3,8,2,1,1,0,2,3,4,5,1,1,0,1,0,0,1,0,1,1,0,0
228,0,4,519,0.33127226,NA,NA,2397.596,0,1.0,0.0,2431.278429,1.487603305785124,0,2438.877967513536,2496.21,2348.52,2371.38,3.1084270025603473,2.47682860866189,1.1327715748921037,1.6376581657677889,4.130191147327423,3.633576978929341,4.0,4.0,3.0,0.0,4.0,4.0,0,1,2,3,5,8,2,3,1,0,5,4,0,0,0,0,0,0,0,0,0,0,0,0
229,0,4,523,0.3409322573333333,NA,NA,2382.315,1,1.0,0.0,2416.576132,1.487603305785124,0,2431.0104123281967,2446.43,2410.61125,2471.29,3.9837376889772713,1.232605134602636,1.9140692758373916,2.3835517475381494,4.480300254654139,3.5374417188577354,7.0,3.0,3.0,7.0,8.0,0.0,7,0,8,1,4,5,1,2,3,5,0,4,0,0,0,0,1,0,1,0,0,0,0,0
230,0,4,537,0.4059762756666667,NA,NA,2565.7685,4,1.0,0.0,2592.110499,1.487603305785124,0,2542.427321949188,2639.83,2692.44875,2597.95,3.196353987790644,1.939242344815284,7.410558286122978,6.675198528449982,4.7942719692364335,3.773736884817481,2.0,5.0,6.0,7.0,1.0,4.0,2,5,0,7,3,4,1,0,5,4,3,2,1,1,1,0,1,0,1,1,1,1,0,0
231,0,4,551,0.305032067,NA,NA,3049.8305,2,1.0,0.0,2785.798354,1.487603305785124,0,2772.528529779259,2631.12,2974.57125,2901.09,3.701015064958483,4.733384308870882,2.048577671404928,1.1662070876918733,2.5742622073739767,3.2688103802502155,3.0,3.0,3.0,1.0,0.0,0.0,6,2,7,1,8,0,3,2,4,5,0,1,1,0,0,1,0,0,0,1,0,1,0,0
232,0,4,555,0.37590730266666667,NA,NA,2817.3395,1,1.0,0.0,2743.1799309999997,1.487603305785124,0,2756.3623490212412,2632.1,2742.59375,2741.96,1.6923189866356552,0.8526293789036572,4.764385079033673,3.997212020214647,3.518325570039451,2.3087367336265743,4.0,1.0,0.0,8.0,4.0,3.0,3,1,2,6,8,7,1,0,5,4,3,2,1,0,0,0,0,0,0,0,1,0,0,0
233,0,4,575,0.3359802843333333,NA,NA,2809.634,0,1.0,0.0,2808.829421,1.487603305785124,0,2843.4922948771346,2682.49,2812.5075,2757.06,4.48602303955704,2.616981102153659,1.8708523139357567,0.8726179297082126,3.350458353292197,3.7678327774628997,2.0,1.0,0.0,3.0,7.0,5.0,3,5,8,0,6,2,3,2,1,4,5,0,0,0,0,0,0,0,0,0,0,0,0,0
234,0,4,588,0.3409360586666666,NA,NA,2391.1835,4,1.0,0.0,2429.9998920000003,1.487603305785124,0,2434.369012911287,2583.08,2194.39,2156.12,4.46538588963449,3.0766906775534153,1.8144997172057629,5.0894268890842795,5.610158691648394,6.281023720744997,2.0,4.0,7.0,7.0,0.0,3.0,2,4,7,1,6,3,2,1,0,3,4,5,1,1,1,0,0,1,1,1,1,0,1,0
235,0,4,606,0.41887385266666666,NA,NA,2646.0545,0,1.0,0.0,2606.919182,1.487603305785124,0,2598.553102873803,2664.82,2597.48125,2537.1,3.245490737259388,3.0844935420900583,0.8074090289883316,2.031413878314197,2.41510960040614,5.4845416666939855,3.0,6.0,2.0,1.0,6.0,7.0,8,4,5,3,1,6,2,3,4,1,0,5,0,0,0,0,0,0,0,0,0,0,0,0
236,0,4,648,0.3475682133333334,NA,NA,2629.1665,1,1.0,0.0,2524.09465,1.487603305785124,0,2495.515618492295,2587.04,2559.38125,2435.58,1.0438932157121599,4.751114877872169,4.119410712271929,3.647989569697529,3.0793130146339536,2.2730740304104984,1.0,3.0,3.0,5.0,4.0,8.0,1,2,7,3,0,6,0,5,4,3,2,1,1,0,0,0,0,0,1,0,0,0,0,0
237,0,4,688,0.31671189299999997,NA,NA,2754.871,1,1.0,0.0,2661.776173,1.487603305785124,0,2640.100791336943,2638.13,2881.41375,2809.87,3.9212050093337893,4.495346050243825,5.17474807286635,1.4307911661453545,2.3346752929501235,3.090330651961267,5.0,4.0,7.0,2.0,4.0,3.0,8,4,3,1,7,0,3,4,5,0,1,2,0,0,0,0,1,0,0,0,1,0,0,0
238,0,4,695,0.21852743866666668,NA,NA,2449.248,1,1.0,0.0,2462.468691,1.487603305785124,0,2419.587671803415,2661.08,2388.55375,2331.4,0.6916712424717844,3.3252291195094585,3.730733461678028,4.154753820039332,2.581215193029493,1.933096188120544,7.0,3.0,4.0,2.0,6.0,6.0,7,8,0,3,4,1,0,5,4,1,2,3,1,0,0,0,0,0,1,0,0,0,0,0
239,0,4,715,0.23331997166666665,NA,NA,2424.32,2,1.0,0.0,2440.476778,1.487603305785124,0,2405.646397334444,2614.35,2296.56625,2195.61,2.5415884787216783,3.1116799782030284,4.061624640598893,1.3323648534715176,4.49387864721939,4.876171684358269,1.0,4.0,8.0,5.0,1.0,7.0,1,8,0,5,3,6,3,0,1,2,4,5,1,1,0,0,0,0,1,0,0,1,0,0
240,0,4,757,0.25676382233333334,NA,NA,2578.305,1,1.0,0.0,2524.745676,1.487603305785124,0,2541.447313619325,2516.27,2440.75625,2409.02,5.009409680496901,2.002558189909905,2.6913835778832436,3.476714283693582,3.9237167281098664,4.29750555800274,2.0,6.0,0.0,8.0,4.0,3.0,0,6,7,2,1,4,1,2,3,4,5,0,1,0,0,0,0,0,0,0,1,0,0,0
241,0,4,790,0.212000961,NA,NA,2297.189,1,1.0,0.0,2611.3735030000003,1.487603305785124,0,2613.2819658475637,2588.4,2147.84375,2314.17,1.0867711952887475,1.6639579446054995,2.480037963949144,2.8803033335134387,3.4536432470194995,4.101875436026603,2.0,4.0,3.0,6.0,1.0,0.0,2,5,0,7,6,4,0,1,2,3,4,5,1,0,0,0,0,0,1,0,0,0,0,0
0,1,0,36,0.6303374030000001,NA,NA,1800.37,1,NA,NA,NA,2.330275229357798,0,1980.4939608496459,2436.48,1721.03,1838.72,3.6353873554617167,2.067159545607865,0.7614559764042497,7.809416978619993,6.489439091645181,5.003085907548666,3.0,5.0,3.0,5.0,0.0,6.0,0,3,4,5,7,8,2,1,0,5,4,3,0,0,0,0,0,1,0,1,0,0,0,0
1,1,0,38,0.6869162726666667,NA,NA,2219.5105,0,NA,NA,NA,2.330275229357798,0,NA,NA,2314.165,2334.1,2.4145710496231914,7.337934255599976,1.2268424360081553,4.178135329857469,4.9397940104827285,5.779236722737551,4.0,1.0,0.0,6.0,7.0,8.0,0,7,1,5,4,2,2,0,3,4,5,1,0,0,0,0,0,0,0,0,0,0,0,0
2,1,0,46,0.6208775453333334,NA,NA,2383.135,3,NA,NA,NA,2.330275229357798,0,2314.561016243232,2182.54,2482.19375,2388.0,7.455330175347626,2.859917640686035,1.4894701670855284,3.7606528531759977,5.001383583061397,6.375560432672501,0.0,8.0,5.0,3.0,2.0,7.0,6,8,5,3,0,1,2,1,3,4,5,0,1,1,1,0,0,0,1,1,1,0,0,0
3,1,0,59,NA,NA,NA,2104.4085,3,NA,NA,1846.489712,2.330275229357798,0,1896.5935027072053,2036.83,1747.52,1912.47,5.9579371167346835,2.224730424582958,1.0886499946936965,3.1850318647921085,4.111909196712077,5.007385480217636,7.0,5.0,1.0,0.0,8.0,3.0,8,5,1,7,6,3,2,1,3,4,5,0,1,1,0,0,1,0,1,0,1,0,0,1
4,1,0,118,0.40483379066666664,NA,NA,1946.691,4,1.0,0.0,1795.6092420000002,2.330275229357798,0,1812.9862557267804,1695.2,1806.905,1849.03,0.7962120659649372,6.641244706697762,5.363004689104855,3.8275791872292757,7.497385360300541,2.578292361460626,2.0,5.0,3.0,1.0,1.0,0.0,2,5,3,4,6,0,0,5,3,2,1,4,1,1,0,1,1,0,1,0,1,1,0,1
5,1,0,134,0.5212050663333333,NA,NA,1888.744,3,1.0,0.0,1795.0368870000002,2.330275229357798,0,1736.4185755935027,2046.55,1843.2475,1915.75,0.6537505574524403,3.834349994547665,4.948288238607347,1.9706830214709044,6.138438479974866,7.625465067103505,4.0,5.0,1.0,2.0,3.0,8.0,4,5,3,2,6,7,0,3,1,2,4,5,1,1,1,0,0,0,0,1,1,1,0,0
6,1,0,151,0.748956682,NA,NA,2114.812,2,1.0,0.0,1815.9072989999997,2.330275229357798,0,1815.7047063723448,1684.31,1784.36375,1736.22,2.826490110717714,3.8359026415273547,1.1098630437627435,4.828097782097757,6.082813455723226,7.0668319668620825,0.0,5.0,8.0,3.0,8.0,7.0,4,0,8,3,2,6,2,0,1,3,4,5,1,0,0,1,0,0,1,1,0,0,0,0
7,1,0,160,0.4159536826666666,NA,NA,1938.24,3,1.0,0.0,1665.7272189999999,2.330275229357798,0,1639.4289879216992,1720.15,1834.955,1793.39,6.094822666607797,2.0345741966739297,1.0349801778793335,3.0181237207725644,4.223783042281866,5.223970637656748,3.0,0.0,5.0,8.0,1.0,3.0,7,0,5,4,2,3,2,1,3,4,5,0,1,1,0,0,1,0,1,0,1,0,0,1
8,1,0,175,0.565196451,NA,NA,1885.592,3,1.0,0.0,1718.23618,2.330275229357798,0,1740.6643065389421,1763.01,1590.40875,1559.56,3.315949729643762,2.181849595159292,1.2609234116971493,5.54027702473104,7.0918673342093825,4.388026655651629,8.0,5.0,0.0,1.0,2.0,7.0,8,5,0,6,7,2,2,1,0,5,3,4,1,1,1,0,0,0,1,0,1,1,0,0
9,1,0,223,0.5481856606666667,NA,NA,1885.0745,0,1.0,0.0,1688.7285219999999,2.330275229357798,0,1657.8000832986256,1695.57,1830.8075,1833.32,3.628085408359766,2.516059035435319,4.562378155998886,1.2195977941155434,6.00894183292985,9.336770197376609,8.0,0.0,1.0,2.0,4.0,7.0,7,5,4,8,2,3,3,1,0,2,4,5,0,0,0,0,0,0,0,0,0,0,0,0
10,1,0,236,0.3347535046666667,NA,NA,1663.9875,4,1.0,0.0,1653.247167,2.330275229357798,0,1680.3431903373594,1615.28,1473.51125,1589.92,6.6342033399268985,2.1340163154527545,1.0431702053174376,3.2198039209470153,4.314284468069673,5.258274274878204,3.0,5.0,1.0,8.0,7.0,0.0,3,6,1,4,7,0,2,1,3,4,5,0,1,0,0,1,1,1,1,0,0,1,1,1
11,1,0,243,0.37938968733333334,NA,NA,1549.6945,0,1.0,0.0,1607.727729,2.330275229357798,0,1593.665139525198,1657.99,1610.265,1657.74,3.4508344558998942,2.0112451454624534,0.9540227139368653,6.545429897494614,5.297835703007877,4.489006596617401,1.0,3.0,8.0,6.0,2.0,0.0,8,4,1,2,7,6,2,1,0,5,4,3,0,0,0,0,0,0,0,0,0,0,0,0
12,1,0,253,0.3340425636666667,NA,NA,1958.189,1,1.0,0.0,1557.235899,2.330275229357798,0,1541.7871720116618,1645.74,1470.65125,1450.74,4.831598223187029,2.518619792535901,1.2254876475781202,3.4724537702277303,6.64590606931597,5.783037087880075,5.0,3.0,6.0,8.0,7.0,1.0,4,8,6,3,1,7,2,1,3,0,5,4,1,0,0,0,0,0,1,0,0,0,0,0
13,1,0,268,0.46045653433333333,NA,NA,1631.0345,2,1.0,0.0,1643.643092,2.330275229357798,0,1626.4531445231153,1452.47,1775.40875,1827.41,5.661463616415858,0.9777928125113249,1.990674708969891,4.463481145910919,7.836184605024755,6.901735053397715,2.0,1.0,6.0,5.0,1.0,7.0,6,1,4,5,0,8,1,2,3,0,5,4,1,0,1,0,0,0,0,1,1,0,0,0
14,1,0,278,0.387570878,NA,NA,1970.7235,1,1.0,0.0,1650.496385,2.330275229357798,0,1666.4798000832986,1596.5,1726.105,1676.48,6.0869508078321815,4.502881777472794,1.0279048848897219,2.191774733364582,7.7428102400153875,6.8155848030000925,8.0,2.0,0.0,5.0,8.0,3.0,2,7,0,4,5,8,2,3,1,0,5,4,1,0,0,0,0,0,1,0,0,0,0,0
15,1,0,287,0.381206431,NA,NA,1951.045,1,1.0,0.0,1594.091022,2.330275229357798,0,1577.917534360683,1636.8,1754.89875,1702.49,0.7245952887460589,4.871163927018642,3.7514510098844767,2.127904656343162,6.991269424557686,5.999264731071889,4.0,0.0,1.0,5.0,8.0,7.0,4,7,6,0,3,2,0,3,2,1,5,4,1,0,0,0,0,0,0,0,0,1,0,0
16,1,0,298,0.3790043286666666,NA,NA,1907.9575,2,1.0,0.0,1656.2721789999998,2.330275229357798,0,1684.5181174510622,1675.64,1536.9325,1550.85,3.9545954763889313,0.7053559767082334,2.7558517921715975,1.746444677002728,6.000788012519479,5.168431427329779,7.0,3.0,5.0,4.0,7.0,2.0,5,3,6,4,1,7,1,3,2,0,5,4,1,1,0,0,0,0,0,1,1,0,0,0
17,1,0,324,0.46896900866666663,NA,NA,1701.9965,3,1.0,0.0,1629.801633,2.330275229357798,0,1630.0874635568514,1627.01,1636.7525,1804.62,2.9874080484732985,1.9556645965203643,1.039929204620421,4.21309697534889,4.996867336332798,5.908134662546217,5.0,3.0,4.0,2.0,1.0,8.0,5,3,4,0,8,6,2,1,0,3,4,5,1,1,1,0,0,0,1,0,1,1,0,0
18,1,0,332,0.3242984626666667,NA,NA,2021.0915,2,0.0,1.0,2026.654321,2.330275229357798,0,2043.1166180758019,1893.6,1968.84,2018.14,2.4923701900988817,3.8413956370204687,1.2843833230435848,4.971074747852981,5.6822401797398925,6.465926436707377,8.0,3.0,1.0,8.0,2.0,0.0,5,3,1,0,8,7,2,0,1,3,4,5,1,0,1,0,0,0,1,0,1,0,0,0
19,1,0,337,0.5889157073333333,NA,NA,2025.6545,1,0.0,1.0,2041.593279,2.330275229357798,0,2045.6484798000834,2047.16,2032.84125,2051.51,5.541350136511028,2.9265303667634726,1.1577735850587487,4.184467085637152,7.140719555318356,6.357400219887495,3.0,5.0,4.0,1.0,8.0,7.0,1,4,0,6,8,3,2,1,3,0,5,4,0,0,0,0,0,1,0,0,0,0,1,0
20,1,0,341,0.4958667346666667,NA,NA,2160.279,2,0.0,1.0,2154.0703329999997,2.330275229357798,0,2157.436901291129,2206.8,2005.39,1943.71,1.2495111981406808,4.934113420546055,3.6704581938683987,2.516241214238107,6.012335362844169,7.020211782306433,0.0,7.0,0.0,5.0,4.0,1.0,0,3,6,5,2,4,0,3,2,1,4,5,1,1,0,0,0,0,0,1,0,1,0,0
21,1,0,351,0.37923810966666666,NA,NA,1836.9215,2,1.0,0.0,1682.6711030000001,2.330275229357798,0,1668.4935443565182,1662.6,1744.2675,1763.43,9.59977853577584,5.808033395558596,4.030611610971391,1.0502169886603951,13.134262640960515,10.639371323399246,5.0,5.0,6.0,8.0,2.0,4.0,3,4,6,8,1,0,3,2,1,0,5,4,1,1,0,0,0,0,1,1,0,0,0,0
22,1,0,357,0.381192081,NA,NA,2075.561,3,0.0,1.0,2010.405002,2.330275229357798,0,1980.2815493544356,2143.49,2019.39125,2194.96,2.099058661609888,2.853723017498851,4.419668613001704,0.9314235141500831,5.731104944832623,6.939499503932893,2.0,4.0,8.0,1.0,3.0,7.0,2,4,0,1,5,6,3,0,1,2,4,5,1,1,1,0,0,0,0,1,1,1,0,0
23,1,0,373,0.273996039,NA,NA,2028.468,4,0.0,1.0,2148.683128,2.330275229357798,0,2148.0270720533113,1895.88,2078.37875,2333.73,4.06334378477186,1.8061748370528221,0.8936023293063045,2.822983967140317,6.629196153022349,5.229638397693634,4.0,6.0,8.0,5.0,0.0,1.0,4,6,8,5,2,0,2,1,3,0,5,4,1,1,1,1,0,0,1,1,1,1,0,0
24,1,0,397,0.4172257926666667,NA,NA,1737.5525,2,1.0,0.0,1629.083333,2.330275229357798,0,1633.9137859225323,1717.87,1449.74125,1571.5,0.7712913081049919,3.6184274069964886,2.6507196743041277,1.6296226605772972,4.608833838254213,5.472928458824754,5.0,8.0,4.0,1.0,0.0,1.0,5,8,6,3,2,4,0,3,2,1,4,5,1,0,0,1,0,0,0,0,1,1,0,0
25,1,0,401,0.4551182045,NA,NA,2183.3,2,0.0,1.0,2147.625275,2.330275229357798,0,2136.4897959183672,2280.11,1910.54,1960.1,4.558231111615896,2.272695134393871,1.0074125649407506,3.5113435043022037,6.462374962866306,5.486511128023267,3.0,6.0,1.0,5.0,7.0,8.0,2,6,1,3,0,5,2,1,3,0,5,4,1,1,0,0,0,0,1,0,1,0,0,0
26,1,0,438,0.4401847856666667,NA,NA,1849.433,2,1.0,0.0,1592.222222,2.330275229357798,0,1551.1266139108704,1685.32,1612.48125,1723.66,3.0383856799453497,1.0315906396135688,5.943748328834772,1.9128806991502643,8.111046203412116,9.670221846550703,2.0,8.0,4.0,5.0,3.0,1.0,2,8,3,6,0,5,1,3,0,2,4,5,1,0,1,0,0,0,0,0,1,1,0,0
27,1,0,442,0.48958933800000004,NA,NA,2167.531,1,0.0,1.0,2030.309329,2.330275229357798,0,2012.3161182840483,2026.11,1943.865,1970.02,2.804617628455162,5.068709340877831,6.542118761688471,1.224311614409089,7.58948362339288,8.549372525885701,8.0,2.0,4.0,1.0,8.0,3.0,7,5,8,1,2,4,3,0,1,2,4,5,1,0,0,0,0,0,0,1,0,0,0,0
28,1,0,446,0.501097725,NA,NA,2114.818,3,0.0,1.0,2203.928551,2.330275229357798,0,2214.991253644315,2104.31,2190.7825,2209.3,4.658073508180678,2.2251569321379066,3.1597852408885956,1.1537385834380984,6.456098231486976,5.519684065133333,4.0,1.0,0.0,2.0,8.0,5.0,6,1,0,2,5,3,3,1,2,0,5,4,1,1,1,0,0,0,1,1,1,0,0,0
29,1,0,462,0.45772500366666674,NA,NA,2086.2385,2,0.0,1.0,2098.284078,2.330275229357798,0,2110.7176176593084,2075.8,1918.5775,2051.32,5.853876685723662,4.344404853880405,2.902649650350213,1.881825190037489,8.741152391768992,7.01434188708663,8.0,3.0,5.0,2.0,1.0,7.0,3,6,5,2,8,4,3,2,1,0,5,4,1,1,0,0,0,0,1,1,0,0,0,0
30,1,0,466,0.646265579,NA,NA,2229.944,3,0.0,1.0,2173.303402,2.330275229357798,0,2158.0354019158685,2195.55,2162.29625,2218.99,0.8038980402052402,3.338081651367247,4.331140925176442,2.0820485362783074,5.4734020084142685,6.529592098668218,1.0,0.0,5.0,6.0,2.0,8.0,5,0,3,6,2,1,0,3,1,2,4,5,0,1,1,0,1,0,0,1,1,0,1,0
31,1,0,480,0.319281867,NA,NA,2267.101,1,0.0,1.0,2049.450307,2.330275229357798,0,2059.2932111620157,1983.32,2041.47625,1977.6,0.6908838003873825,2.729723927564919,3.825930177234113,4.593440507538617,1.7093721618875861,5.5538254817947745,8.0,2.0,0.0,1.0,5.0,7.0,3,2,7,5,1,6,0,4,1,2,3,5,0,0,1,0,0,0,0,0,1,0,0,0
32,1,0,484,0.4539475423333333,NA,NA,2109.291,3,0.0,1.0,2114.154145,2.330275229357798,0,2138.7513536026654,2175.99,1889.695,1920.31,3.943159314803779,3.021947748027742,1.840180546976626,0.8703753435984254,8.077105781063437,4.917085903696716,8.0,1.0,3.0,7.0,6.0,1.0,8,5,3,7,0,4,3,2,1,0,5,4,1,1,0,1,0,0,1,1,0,1,0,0
33,1,0,497,0.566778938,NA,NA,2012.8655,3,1.0,0.0,1689.26405,2.330275229357798,0,1681.4860474802165,1605.58,1767.6775,1718.65,6.596564618870616,0.6398711018264294,2.2842039968818426,5.187845218926668,8.316433827392757,7.556444398127496,8.0,3.0,5.0,1.0,7.0,2.0,8,3,6,1,5,4,1,2,3,0,5,4,1,0,1,1,0,0,0,1,1,1,0,0
34,1,0,503,0.5323149803333334,NA,NA,1960.2,2,1.0,0.0,1689.111376,2.330275229357798,0,1714.5351936693044,1648.43,1632.0525,1656.32,7.267610684968531,3.714590322226286,0.7091497844085097,5.690362069755793,9.36970080062747,8.242966474033892,1.0,6.0,0.0,4.0,3.0,5.0,1,4,0,8,5,3,2,1,3,0,5,4,1,0,0,1,0,0,1,0,0,1,0,0
35,1,0,518,0.44642397933333333,NA,NA,2111.2005,0,0.0,1.0,2036.111273,2.330275229357798,0,2036.6089129529362,1979.59,1959.01125,2004.0,7.372477660886943,3.2214737432077527,1.3839312130585313,4.804122982546687,9.42882655095309,8.501347091048956,1.0,8.0,3.0,0.0,7.0,2.0,3,2,8,6,1,4,2,1,3,0,5,4,0,0,0,0,0,0,0,0,0,0,0,0
36,1,0,525,0.45440512533333327,NA,NA,2188.218,1,0.0,1.0,2336.690127,2.330275229357798,0,2326.5776759683467,2484.49,2238.9325,2267.18,4.963466035202146,4.091945164836943,1.3817675998434424,2.993034184910357,8.457354946061969,6.394129476509988,2.0,5.0,3.0,4.0,6.0,1.0,7,4,3,6,2,8,2,3,1,0,5,4,1,0,0,0,0,0,1,0,0,0,0,0
37,1,0,533,0.5562743370000001,NA,NA,2251.758,3,0.0,1.0,2234.910844,2.330275229357798,0,2244.081632653061,2068.24,2137.84875,2234.86,1.7518820781260729,4.075706232339144,0.6368008740246296,2.7648720275610685,6.0441307025030255,5.18876494653523,0.0,1.0,8.0,5.0,7.0,3.0,0,6,8,5,1,4,2,0,3,1,5,4,1,1,1,0,0,0,1,1,0,1,0,0
38,1,0,547,0.578923998,NA,NA,2150.247,4,0.0,1.0,2163.2233300000003,2.330275229357798,0,2182.844231570179,2061.81,2006.5325,2054.43,0.9419664619490504,7.496358434669673,4.5455450769513845,3.450946783646941,2.5534816524013877,1.7934602927416563,1.0,3.0,8.0,4.0,0.0,3.0,1,5,6,4,0,3,0,5,4,3,2,1,1,1,1,1,0,0,0,1,0,1,1,1
39,1,0,570,0.6158647509999999,NA,NA,2018.115,4,0.0,1.0,2059.001709,2.330275229357798,0,2120.1670137442734,2171.6,1806.77875,2147.36,5.834686411544681,2.1540687289088964,3.572203795425594,0.7073978539556265,7.712359425611794,6.634557718411088,4.0,1.0,6.0,8.0,2.0,0.0,3,1,6,8,2,4,3,1,2,0,5,4,1,1,1,0,0,1,1,1,1,0,1,0
40,1,0,574,0.5712333193333333,NA,NA,2007.9955,1,0.0,1.0,1952.3716940000002,2.330275229357798,0,1964.1007913369428,2135.83,1755.59125,1694.96,3.4595770044252276,4.928926335647702,5.817522048018873,1.7039949158206582,6.67913659568876,7.567127899266779,5.0,2.0,1.0,4.0,0.0,8.0,2,5,1,8,4,6,3,0,1,2,4,5,0,0,0,1,0,0,1,0,0,0,0,0
41,1,0,594,0.4023846983333333,NA,NA,2090.2545,3,0.0,1.0,2131.569218,2.330275229357798,0,2110.0403998334027,2198.72,1936.495,2010.15,4.210103154182434,3.353186747059226,2.1952341198921204,1.1217342661693692,6.265456764958799,5.442303733900189,2.0,5.0,1.0,8.0,7.0,3.0,4,5,1,8,2,7,3,2,1,0,5,4,1,1,1,0,0,0,1,1,1,0,0,0
42,1,0,601,0.32975867200000003,NA,NA,2148.693,2,0.0,1.0,2106.548182,2.330275229357798,0,2107.9283631820076,1993.7,1942.98375,1999.91,3.871058439835906,1.774517199024558,0.9937409441918135,2.6696972651407123,6.278268242254853,4.822556319646537,3.0,0.0,5.0,8.0,1.0,7.0,8,0,5,3,7,6,2,1,3,0,5,4,1,1,0,0,0,0,1,0,1,0,0,0
43,1,0,605,0.3713699105,NA,NA,2195.9715,1,0.0,1.0,2163.28585,2.330275229357798,0,2128.2936276551436,1922.62,2193.42125,2182.03,1.7418685592710972,3.709858825430274,0.6301215831190348,2.6690235771238804,5.60487524420023,4.764562125317752,0.0,3.0,8.0,1.0,6.0,7.0,0,8,2,3,1,4,2,0,3,1,5,4,0,1,0,0,0,0,0,0,0,1,0,0
44,1,0,609,0.5628425823333333,NA,NA,2194.2565,3,0.0,1.0,2106.9225239999996,2.330275229357798,0,2080.125364431487,2093.97,2139.11875,1978.57,2.1709260400384665,4.335727876983583,3.433429468423128,0.9225980015471578,6.751531407237053,5.7678410448133945,5.0,1.0,0.0,3.0,8.0,2.0,5,7,4,3,8,6,3,0,2,1,5,4,1,1,0,0,0,1,0,1,0,1,1,0
45,1,0,617,0.55004745,NA,NA,2248.0695,3,0.0,1.0,2280.2926850000003,2.330275229357798,0,2264.23198667222,2081.76,2214.455,2323.09,3.2524109361693263,2.0322084482759237,0.8119275569915771,8.332342330366373,9.260811937972903,10.364096901379526,8.0,1.0,2.0,2.0,4.0,6.0,8,1,2,6,5,3,2,1,0,3,4,5,1,1,1,0,0,0,1,0,1,1,0,0
46,1,0,621,0.4706120326666667,NA,NA,2251.5915,4,0.0,1.0,2268.781893,2.330275229357798,0,2322.372761349438,2176.11,2126.9425,2255.84,3.129244619049132,2.306874753907323,4.160123367793858,1.2982528014108539,6.143001768738031,8.079366328194737,4.0,8.0,6.0,1.0,6.0,7.0,4,8,3,1,5,7,3,1,0,2,4,5,1,1,1,0,0,1,0,1,1,1,0,1
47,1,0,625,0.6881707063333332,NA,NA,2490.0805,2,0.0,1.0,2400.48273,2.330275229357798,0,2376.67638483965,2381.74,2466.7375,2458.04,1.7679268596693873,5.7920735739171505,0.8591053951531649,2.87267095874995,6.973402578383684,8.149272229522467,1.0,5.0,4.0,6.0,2.0,8.0,1,6,4,2,3,5,2,0,3,1,4,5,1,1,0,0,0,0,1,0,0,1,0,0
48,1,0,629,0.49180569500000004,NA,NA,2344.607,2,0.0,1.0,2260.877817,2.330275229357798,0,2278.136609745939,2134.15,2207.815,2214.15,4.105668388307095,1.8744702162221074,1.011363461613655,3.177209329791367,6.409697288647294,5.289983230642974,5.0,1.0,2.0,6.0,8.0,0.0,4,1,5,6,7,2,2,1,3,0,5,4,0,1,1,0,0,0,0,1,1,0,0,0
49,1,0,633,0.48017167466666666,NA,NA,2367.185,4,0.0,1.0,2274.034884,2.330275229357798,0,2270.3615160349855,2149.73,2332.04875,2340.94,1.9964969921857119,2.7085909908637404,4.6430051904171705,0.6929747126996517,6.420223413966596,8.043073556385934,1.0,5.0,2.0,0.0,6.0,5.0,1,5,4,0,6,2,3,0,1,2,4,5,1,1,1,0,1,0,0,1,1,1,1,0
50,1,0,637,0.530963137,NA,NA,2497.379,0,0.0,1.0,2329.482877,2.330275229357798,0,2311.0608079966682,2373.34,2428.0575,2381.37,2.1865118127316236,4.50769566744566,1.0226935669779778,3.2511291336268187,6.0989320781081915,7.283160535618663,6.0,8.0,4.0,2.0,7.0,3.0,2,3,6,0,8,5,2,0,3,1,4,5,0,0,0,0,0,0,0,0,0,0,0,0
51,1,0,649,0.5331713213333333,NA,NA,2347.7825,3,0.0,1.0,2161.007102,2.330275229357798,0,2139.2515618492293,2112.53,2227.63625,2292.51,5.678842659108341,3.12682783883065,0.9696737732738256,4.598931222222745,8.32583381421864,7.518194709904492,0.0,1.0,2.0,5.0,7.0,4.0,0,1,2,3,5,7,2,1,3,0,5,4,1,1,0,1,0,0,1,0,1,1,0,0
52,1,0,661,0.311919195,NA,NA,2294.3955,4,0.0,1.0,2113.9521600000003,2.330275229357798,0,2119.0941274468973,2089.22,2061.25625,2005.78,6.199043037369847,3.341840106062591,4.508806126192212,2.0469973692670465,7.533286120742559,8.909245691262186,2.0,3.0,8.0,0.0,5.0,5.0,6,3,8,0,1,5,3,1,2,0,4,5,1,1,1,0,0,1,1,1,1,0,0,1
53,1,1,3,0.5947100516666667,NA,NA,2459.1915,1,NA,NA,NA,2.330275229357798,2,2541.5905872553103,2424.45,2263.745,2520.6,2.0397102488204837,3.2994456542655826,0.7682721149176359,4.33988775126636,5.812352925539017,7.6114042876288295,1.0,4.0,2.0,0.0,8.0,3.0,1,6,7,2,4,8,2,0,1,3,4,5,0,1,0,0,0,0,0,0,0,1,0,0
54,1,1,67,0.314157884,NA,NA,2373.523,2,NA,NA,NA,2.330275229357798,2,2179.3852561432736,2150.96,2061.53125,2313.81,4.422189454548061,3.1666427180171013,1.8119047498330474,0.8918837551027536,7.40413159225136,6.269234606996179,1.0,5.0,3.0,8.0,2.0,0.0,1,4,3,5,6,7,3,2,1,0,5,4,0,1,0,1,0,0,1,0,0,1,0,0
55,1,1,82,0.47172667300000004,NA,NA,2280.8055,2,1.0,0.0,2104.557202,2.330275229357798,0,2100.655560183257,2064.59,2074.27125,2133.29,2.5139401825144887,3.369325895793736,4.422142698429525,1.0651242258027196,5.950749495998025,8.054110866039991,8.0,5.0,1.0,6.0,4.0,7.0,8,1,3,6,5,2,3,0,1,2,4,5,1,1,0,0,0,0,0,1,0,1,0,0
56,1,1,117,0.5657436503333333,NA,NA,2511.9625,1,0.0,1.0,2425.155745,2.330275229357798,0,2422.3731778425654,2363.28,2384.185,2420.24,0.7511633448302746,2.5995644265785813,3.520146209746599,1.7023524632677436,4.38312837574631,5.573951735161245,0.0,5.0,1.0,2.0,8.0,7.0,4,3,1,8,2,0,0,3,1,2,4,5,0,0,0,1,0,0,1,0,0,0,0,0
57,1,1,341,0.406065559,NA,NA,2332.1105,1,1.0,0.0,1853.736075,2.330275229357798,0,1863.871720116618,2216.34,1912.0825,1763.04,3.7927441261708736,0.6914833625778556,1.6016986751928926,2.504210907034576,7.488442671485245,4.833237825892866,1.0,5.0,2.0,0.0,3.0,8.0,0,4,2,1,5,3,1,2,3,0,5,4,0,1,0,0,0,0,1,0,0,0,0,0
58,1,1,607,0.3085713763333333,NA,NA,2675.5725,1,0.0,1.0,2471.994342,2.330275229357798,0,2516.4897959183672,2419.79,2500.125,2561.76,5.354662132449448,0.9315783232450485,3.5774624394252896,2.3301319610327482,10.287951332516968,7.017213400453329,1.0,1.0,8.0,3.0,8.0,2.0,4,6,1,3,7,8,1,3,2,0,5,4,0,1,0,0,0,0,0,1,0,0,0,0
59,1,1,654,0.3824418586666667,NA,NA,2516.921,3,0.0,1.0,2346.016429,2.330275229357798,0,2337.0262390670555,2388.18,2227.73,2244.63,2.824910663999617,3.847284064628184,0.9859491987153888,1.8490950111299753,8.535583445802331,5.472743430174887,4.0,5.0,3.0,0.0,8.0,2.0,4,1,3,0,7,8,2,3,0,1,5,4,1,1,1,0,0,0,1,1,0,1,0,0
60,1,2,9,0.6358242685,NA,NA,2209.6075,1,NA,NA,2308.135802,2.330275229357798,0,2324.063723448563,2378.85,2291.47125,2302.87,0.6962305400520563,3.46535681001842,4.918372554704547,1.7700554057955742,7.239789905026555,12.694391653873026,2.0,2.0,1.0,0.0,8.0,7.0,2,0,4,5,3,1,0,3,1,2,4,5,1,0,0,0,0,0,0,0,0,1,0,0
61,1,2,51,0.36938947266666666,NA,NA,2243.8,1,NA,NA,NA,2.330275229357798,2,2045.5805914202415,2085.92,2016.06125,2126.67,6.291204593144357,2.7724077543243766,3.6352547835558653,1.482131158001721,10.27369383443147,8.090364293195307,4.0,2.0,5.0,0.0,8.0,7.0,4,5,8,2,0,6,3,1,2,0,5,4,0,0,0,1,0,0,0,0,0,1,0,0
62,1,2,55,0.581511125,NA,NA,2210.7165,2,NA,NA,NA,2.330275229357798,2,2074.310287380258,2150.96,1758.6525,2061.87,5.006560974754393,1.7466787435114384,7.4786349926143885,0.7065901681780815,6.14266050606966,4.033830659464002,5.0,1.0,3.0,0.0,1.0,8.0,8,1,7,0,3,4,3,1,5,0,4,2,1,1,0,0,0,0,0,1,1,0,0,0
63,1,2,61,0.3630558163333333,NA,NA,2359.266,3,NA,NA,NA,2.330275229357798,2,1989.4189920866306,2214.58,2300.54125,2215.61,3.130729983560741,4.001242744736373,1.8646753672510386,0.8742070691660047,5.631903734989464,7.104107758030295,8.0,5.0,3.0,0.0,1.0,2.0,8,6,3,0,7,5,3,2,0,1,4,5,1,1,1,0,0,0,1,1,0,1,0,0
64,1,2,81,0.2870049946666667,NA,NA,2315.9505,2,1.0,0.0,2009.53839,2.330275229357798,2,1961.9833402748854,2098.89,2022.17375,2131.5,0.8076353976503015,5.560323449783027,3.177003202959895,6.815895560197532,10.247103540226817,1.6749966787174344,1.0,4.0,2.0,0.0,6.0,8.0,1,3,5,6,7,8,0,5,2,1,3,4,1,1,0,0,0,0,0,0,0,1,0,1
65,1,2,131,0.174023637,NA,NA,2434.207,1,1.0,0.0,1872.615142,2.330275229357798,0,1841.2657226155768,1881.85,2310.61,2222.53,0.8727835714817047,7.7418734058737755,5.942841430194676,3.861068584024906,12.876744162291288,1.897136127576232,2.0,4.0,1.0,5.0,7.0,8.0,2,3,8,0,6,1,0,5,3,2,1,4,1,0,0,0,0,0,0,0,0,1,0,0
66,1,2,135,0.48207204766666667,NA,NA,2169.8225,4,0.0,1.0,2278.126273,2.330275229357798,0,2283.2024156601415,2236.27,2135.2025,2219.47,0.8307001627981663,1.8294502906501293,4.203010185621679,3.179632667452097,5.450569883920252,6.658796519041061,5.0,0.0,1.0,2.0,8.0,6.0,5,0,6,2,8,7,0,1,3,2,4,5,1,1,1,0,1,0,0,1,1,1,1,0
67,1,2,139,0.4640824186666667,NA,NA,2119.5715,2,1.0,0.0,1819.6848559999999,2.330275229357798,0,1800.4356518117452,1812.47,1852.1225,1805.91,1.025238641537726,1.8181695071980357,3.4554567597806454,2.6550112646073103,4.846628623083234,6.5816941587254405,7.0,0.0,5.0,2.0,6.0,4.0,7,0,6,4,8,3,0,1,3,2,4,5,1,1,0,0,0,0,0,0,1,1,0,0
68,1,2,252,0.4155594856666667,NA,NA,2038.407,1,1.0,0.0,1824.7432399999998,2.330275229357798,0,1804.561016243232,1966.07,1697.08125,1687.77,3.7797290878370404,2.6214913623407483,1.0538117978721857,5.827751101925969,11.682632476091385,9.29017795342952,5.0,2.0,3.0,1.0,1.0,8.0,0,2,4,3,7,1,2,1,0,3,5,4,0,1,0,0,0,0,0,0,1,0,0,0
69,1,2,261,0.471260252,NA,NA,2429.6185,3,0.0,1.0,2488.739047,2.330275229357798,0,2499.109954185756,2586.66,2193.22625,2255.12,11.83979366812855,3.6711016604676843,5.153214857913554,2.402408741414547,7.256214722059667,0.8805006220936775,5.0,1.0,3.0,7.0,2.0,8.0,6,3,4,7,2,8,5,3,1,2,4,0,1,1,0,0,1,0,0,1,0,0,1,1
70,1,2,301,0.242044465,NA,NA,2536.3515,2,0.0,1.0,2389.8445030000003,2.330275229357798,0,2405.5077051228654,2409.83,2158.48,2274.71,1.1807938739657402,5.5654441062361,3.9480618704110384,2.437305954284966,13.99541247729212,8.035983153618872,7.0,3.0,0.0,2.0,3.0,1.0,7,4,3,2,6,8,0,3,2,1,5,4,1,1,0,0,0,0,0,1,0,1,0,0
71,1,2,338,0.31732751566666667,NA,NA,2470.18,3,1.0,0.0,2006.258137,2.330275229357798,0,1980.0803831736775,1900.28,2145.9175,2170.99,3.651267063803971,1.9789543030783534,0.8777043735608459,7.507821395993233,9.050123760476708,11.785654292441905,7.0,8.0,2.0,1.0,3.0,0.0,7,8,2,0,6,1,2,1,0,3,4,5,1,1,1,0,0,0,1,0,1,1,0,0
72,1,2,377,0.1993534153333333,NA,NA,2672.8425,3,0.0,1.0,2558.688889,2.330275229357798,0,2606.1107871720114,2435.22,2562.68875,2646.92,3.607613330706954,5.366543903015554,7.94921737536788,0.8253611205145717,1.4568323604762554,2.545118569396436,3.0,1.0,0.0,5.0,2.0,8.0,4,1,5,0,2,8,3,4,5,0,1,2,0,1,1,0,1,0,0,0,1,0,1,1
73,1,2,381,0.41603702600000003,NA,NA,2557.8135,3,0.0,1.0,2627.091589,2.330275229357798,0,2614.883381924198,2439.42,2351.075,2489.89,3.7582617308944464,1.8149943631142378,2.725194280035794,0.7770106717944145,6.492141826078296,4.444435130804777,8.0,2.0,0.0,7.0,1.0,3.0,6,2,8,7,0,3,3,1,2,0,5,4,1,1,0,0,1,0,0,1,1,0,0,1
